time,seconds_elapsed,z,y,x
1638746348766555100,0.08355517578125,-0.9844512939453125,-0.03704833984375,-0.1561431884765625
1638746348776518100,0.09351806640625,-0.991180419921875,-0.0380401611328125,-0.1521759033203125
1638746348786481000,0.10348095703125,-1.0064849853515625,-0.0298004150390625,-0.1491851806640625
1638746348796445000,0.11344482421875,-1.008026123046875,-0.026641845703125,-0.1476287841796875
1638746348806408000,0.123407958984375,-0.9952239990234375,-0.033203125,-0.1496734619140625
1638746348816371000,0.133370849609375,-0.988006591796875,-0.03619384765625,-0.148834228515625
1638746348826334000,0.143333984375,-0.99249267578125,-0.0326080322265625,-0.14764404296875
1638746348836298000,0.153298095703125,-1.000244140625,-0.030242919921875,-0.144927978515625
1638746348846261000,0.163260986328125,-0.995849609375,-0.0315093994140625,-0.14697265625
1638746348856224000,0.17322412109375,-0.988525390625,-0.0347900390625,-0.1477203369140625
1638746348866187000,0.18318701171875,-0.9866485595703125,-0.0353546142578125,-0.146636962890625
1638746348876151000,0.193151123046875,-0.989166259765625,-0.0306396484375,-0.1460723876953125
1638746348886114000,0.203114013671875,-0.992523193359375,-0.0284576416015625,-0.1455078125
1638746348896076800,0.213076904296875,-0.9903564453125,-0.02911376953125,-0.146148681640625
1638746348906040000,0.2230400390625,-0.988677978515625,-0.03009033203125,-0.142242431640625
1638746348916003800,0.23300390625,-0.986419677734375,-0.0305633544921875,-0.140472412109375
1638746348925967000,0.242967041015625,-0.98187255859375,-0.0314788818359375,-0.144012451171875
1638746348935930000,0.25293017578125,-0.9791717529296875,-0.0348663330078125,-0.148681640625
1638746348945893000,0.26289306640625,-0.9834136962890625,-0.0384521484375,-0.151153564453125
1638746348955857200,0.272857177734375,-0.9929351806640625,-0.0375213623046875,-0.1479034423828125
1638746348965820200,0.282820068359375,-1.000823974609375,-0.0328826904296875,-0.1435699462890625
1638746348975783200,0.292783203125,-1.0002288818359375,-0.03216552734375,-0.144134521484375
1638746348985746000,0.302745849609375,-0.99114990234375,-0.0348052978515625,-0.14654541015625
1638746348995710000,0.3127099609375,-0.9838409423828125,-0.035308837890625,-0.1497344970703125
1638746349005673000,0.3226728515625,-0.9897308349609375,-0.0354766845703125,-0.150360107421875
1638746349015636000,0.332635986328125,-0.9984588623046875,-0.0338134765625,-0.146331787109375
1638746349025599000,0.342598876953125,-0.99896240234375,-0.0286865234375,-0.1424102783203125
1638746349035563000,0.35256298828125,-0.99798583984375,-0.030029296875,-0.1466522216796875
1638746349045526000,0.362526123046875,-0.9960479736328125,-0.0317230224609375,-0.151641845703125
1638746349055489000,0.372489013671875,-0.9992218017578125,-0.029998779296875,-0.152740478515625
1638746349065452000,0.3824521484375,-1.0082550048828125,-0.0282745361328125,-0.149017333984375
1638746349075416000,0.392416015625,-1.010345458984375,-0.0258636474609375,-0.144561767578125
1638746349085379000,0.402379150390625,-1.0030670166015625,-0.02423095703125,-0.1437530517578125
1638746349095341800,0.412341796875,-0.9937591552734375,-0.0298309326171875,-0.1500396728515625
1638746349105304800,0.422304931640625,-0.991973876953125,-0.03546142578125,-0.1493988037109375
1638746349115268900,0.432268798828125,-0.9984588623046875,-0.03472900390625,-0.1455230712890625
1638746349125231900,0.44223193359375,-1.00555419921875,-0.032562255859375,-0.143218994140625
1638746349135195100,0.452195068359375,-1.00555419921875,-0.030853271484375,-0.1416015625
1638746349145158100,0.462158203125,-1.0006561279296875,-0.0329742431640625,-0.1429901123046875
1638746349155122000,0.472121826171875,-0.9964752197265625,-0.0335845947265625,-0.143402099609375
1638746349165085200,0.482085205078125,-0.9941864013671875,-0.032684326171875,-0.1430511474609375
1638746349175048200,0.492048095703125,-0.9920806884765625,-0.0308380126953125,-0.1416015625
1638746349185011000,0.502010986328125,-0.99017333984375,-0.03021240234375,-0.140380859375
1638746349194975000,0.51197509765625,-0.988800048828125,-0.0298309326171875,-0.1407623291015625
1638746349204938000,0.52193798828125,-0.988189697265625,-0.030059814453125,-0.1385345458984375
1638746349214901000,0.53190087890625,-0.98883056640625,-0.030242919921875,-0.1370697021484375
1638746349224864000,0.541864013671875,-0.98968505859375,-0.02947998046875,-0.1374359130859375
1638746349234828000,0.551828125,-0.9880828857421875,-0.0294189453125,-0.13739013671875
1638746349244791000,0.561791015625,-0.986419677734375,-0.0285491943359375,-0.137420654296875
1638746349254754000,0.571754150390625,-0.987060546875,-0.0308990478515625,-0.138397216796875
1638746349264717000,0.581717041015625,-0.9874114990234375,-0.0333709716796875,-0.1406402587890625
1638746349274681000,0.59168115234375,-0.989044189453125,-0.0312957763671875,-0.1385955810546875
1638746349284643800,0.601643798828125,-0.9904022216796875,-0.0311279296875,-0.13775634765625
1638746349294606800,0.61160693359375,-0.99072265625,-0.0325775146484375,-0.138702392578125
1638746349304569900,0.62156982421875,-0.987335205078125,-0.0311431884765625,-0.1368560791015625
1638746349314534000,0.631533935546875,-0.9830169677734375,-0.0297393798828125,-0.1392669677734375
1638746349324497000,0.641496826171875,-0.9806060791015625,-0.029815673828125,-0.140960693359375
1638746349334460000,0.6514599609375,-0.9826202392578125,-0.0294342041015625,-0.141998291015625
1638746349344424000,0.661423828125,-0.9913330078125,-0.027923583984375,-0.140838623046875
1638746349354387000,0.671386962890625,-1.0016021728515625,-0.0280609130859375,-0.139556884765625
1638746349364350200,0.68135009765625,-1.00787353515625,-0.026031494140625,-0.1399383544921875
1638746349374313200,0.691313232421875,-1.0081787109375,-0.025115966796875,-0.1409454345703125
1638746349384277000,0.701277099609375,-1.00360107421875,-0.0269927978515625,-0.1439056396484375
1638746349394240000,0.711239990234375,-0.9987335205078125,-0.030609130859375,-0.14599609375
1638746349404203000,0.721203125,-0.9995574951171875,-0.0322418212890625,-0.145660400390625
1638746349414166000,0.731166015625,-1.0023040771484375,-0.03106689453125,-0.1452484130859375
1638746349424130000,0.741130126953125,-1.00286865234375,-0.0289154052734375,-0.1436004638671875
1638746349434093000,0.751093017578125,-1.000091552734375,-0.0293121337890625,-0.142303466796875
1638746349444056000,0.76105615234375,-0.99517822265625,-0.03082275390625,-0.13848876953125
1638746349454019300,0.771019287109375,-0.9924468994140625,-0.0308074951171875,-0.137359619140625
1638746349463983400,0.7809833984375,-0.9924468994140625,-0.029083251953125,-0.1362457275390625
1638746349473946400,0.7909462890625,-0.9939117431640625,-0.02783203125,-0.1357879638671875
1638746349483909400,0.800909423828125,-0.99737548828125,-0.0276641845703125,-0.1375579833984375
1638746349493872400,0.810872314453125,-1.000518798828125,-0.0278778076171875,-0.1356658935546875
1638746349503836400,0.82083642578125,-1.0012664794921875,-0.0293121337890625,-0.1363525390625
1638746349513799200,0.830799072265625,-0.998077392578125,-0.0315399169921875,-0.1363677978515625
1638746349523762200,0.84076220703125,-0.9930572509765625,-0.0307464599609375,-0.13677978515625
1638746349533725200,0.85072509765625,-0.9900665283203125,-0.031829833984375,-0.1378021240234375
1638746349543689200,0.860689208984375,-0.991455078125,-0.0319671630859375,-0.136871337890625
1638746349553652200,0.87065234375,-0.9929046630859375,-0.0314178466796875,-0.134429931640625
1638746349563615200,0.880615234375,-0.9911041259765625,-0.0324554443359375,-0.13201904296875
1638746349573578200,0.890578125,-0.9886627197265625,-0.0332794189453125,-0.131866455078125
1638746349583542300,0.900542236328125,-0.986480712890625,-0.03265380859375,-0.1329345703125
1638746349593505300,0.91050537109375,-0.9866180419921875,-0.0331878662109375,-0.1348114013671875
1638746349603468300,0.92046826171875,-0.9908599853515625,-0.032806396484375,-0.1337890625
1638746349613432300,0.930432373046875,-0.9892425537109375,-0.031341552734375,-0.1288299560546875
1638746349623395300,0.940395263671875,-0.9864654541015625,-0.0330810546875,-0.1314544677734375
1638746349633358300,0.9503583984375,-0.9847869873046875,-0.033172607421875,-0.1360015869140625
1638746349643321300,0.9603212890625,-0.9889068603515625,-0.03265380859375,-0.139556884765625
1638746349653285400,0.970285400390625,-0.9991302490234375,-0.0342559814453125,-0.14190673828125
1638746349663248400,0.980248291015625,-1.009857177734375,-0.0341339111328125,-0.1374359130859375
1638746349673211400,0.99021142578125,-1.014190673828125,-0.0322723388671875,-0.1335906982421875
1638746349683174400,1.00017431640625,-1.011322021484375,-0.0319366455078125,-0.132843017578125
1638746349693138400,1.010138427734375,-1.00482177734375,-0.03192138671875,-0.1328125
1638746349703101400,1.020101318359375,-0.9940185546875,-0.0326080322265625,-0.13067626953125
1638746349713064200,1.030064208984375,-0.9847412109375,-0.03515625,-0.1305084228515625
1638746349723027200,1.040027099609375,-0.9838104248046875,-0.0356597900390625,-0.1332855224609375
1638746349732991200,1.0499912109375,-0.9892120361328125,-0.03631591796875,-0.1363067626953125
1638746349742954200,1.059954345703125,-0.998382568359375,-0.0365753173828125,-0.1368865966796875
1638746349752917200,1.069917236328125,-0.999847412109375,-0.034759521484375,-0.134429931640625
1638746349762880300,1.07988037109375,-0.9985809326171875,-0.03167724609375,-0.133392333984375
1638746349772844300,1.08984423828125,-0.998291015625,-0.0290069580078125,-0.134979248046875
1638746349782807300,1.099807373046875,-0.99517822265625,-0.030242919921875,-0.1352386474609375
1638746349792770300,1.109770263671875,-0.9955291748046875,-0.0314178466796875,-0.1377716064453125
1638746349802733000,1.119733154296875,-1.00177001953125,-0.0307769775390625,-0.1375579833984375
1638746349812697300,1.129697265625,-1.008453369140625,-0.030364990234375,-0.138641357421875
1638746349822660000,1.13966015625,-1.0113067626953125,-0.031768798828125,-0.1462860107421875
1638746349832623400,1.149623291015625,-1.0106964111328125,-0.033905029296875,-0.153656005859375
1638746349842586400,1.15958642578125,-1.0144195556640625,-0.038818359375,-0.1672821044921875
1638746349852550100,1.169550048828125,-1.02154541015625,-0.0405426025390625,-0.1759033203125
1638746349862513400,1.179513427734375,-1.0172119140625,-0.04022216796875,-0.1657257080078125
1638746349872476400,1.189476318359375,-0.99749755859375,-0.0406494140625,-0.1544952392578125
1638746349882439400,1.199439453125,-0.988189697265625,-0.0337677001953125,-0.1487579345703125
1638746349892403500,1.209403564453125,-0.9939117431640625,-0.0242919921875,-0.126708984375
1638746349902366500,1.219366455078125,-0.99920654296875,-0.0183563232421875,-0.0961456298828125
1638746349912329200,1.2293291015625,-0.9992218017578125,-0.0120849609375,-0.0803985595703125
1638746349922292200,1.239292236328125,-0.998138427734375,-0.0099945068359375,-0.0889129638671875
1638746349932256300,1.24925634765625,-0.9981231689453125,-0.010009765625,-0.107330322265625
1638746349942219300,1.25921923828125,-0.991943359375,-0.0131988525390625,-0.123992919921875
1638746349952182300,1.269182373046875,-0.982818603515625,-0.0159454345703125,-0.1365814208984375
1638746349962146300,1.279146240234375,-0.97430419921875,-0.0113677978515625,-0.1408233642578125
1638746349972109300,1.289109375,-0.97467041015625,-0.0055084228515625,-0.135589599609375
1638746349982072300,1.299072265625,-0.9838714599609375,-0.0056915283203125,-0.1277313232421875
1638746349992035300,1.309035400390625,-0.9879150390625,-0.0052947998046875,-0.1143798828125
1638746350001999400,1.318999267578125,-0.9878997802734375,-0.0043792724609375,-0.1017913818359375
1638746350011962400,1.32896240234375,-0.989990234375,-0.008331298828125,-0.0896148681640625
1638746350021925000,1.338925048828125,-0.9913482666015625,-0.01690673828125,-0.0794677734375
1638746350031888100,1.34888818359375,-0.9876251220703125,-0.0246124267578125,-0.0785675048828125
1638746350041852200,1.35885205078125,-0.976898193359375,-0.0250701904296875,-0.0876007080078125
1638746350051815200,1.368815185546875,-0.9676971435546875,-0.026275634765625,-0.097564697265625
1638746350061778400,1.3787783203125,-0.9640960693359375,-0.0331878662109375,-0.1095123291015625
1638746350071741400,1.388741455078125,-0.9689483642578125,-0.0403900146484375,-0.120391845703125
1638746350081705200,1.398705322265625,-0.980072021484375,-0.04156494140625,-0.1265716552734375
1638746350091668500,1.40866845703125,-0.98919677734375,-0.041717529296875,-0.1371612548828125
1638746350101631500,1.418631591796875,-1.000030517578125,-0.0391387939453125,-0.1439666748046875
1638746350111594200,1.42859423828125,-1.014617919921875,-0.0326385498046875,-0.142364501953125
1638746350121558300,1.438558349609375,-1.0298309326171875,-0.0261077880859375,-0.13751220703125
1638746350131521300,1.448521240234375,-1.033599853515625,-0.0270233154296875,-0.1331939697265625
1638746350141484300,1.458484375,-1.024017333984375,-0.027069091796875,-0.134033203125
1638746350151447300,1.468447265625,-1.01300048828125,-0.026336669921875,-0.137481689453125
1638746350161411300,1.478411376953125,-1.0139617919921875,-0.030517578125,-0.13604736328125
1638746350171374300,1.488374267578125,-1.018768310546875,-0.030487060546875,-0.1313629150390625
1638746350181337300,1.49833740234375,-1.021484375,-0.02471923828125,-0.1251983642578125
1638746350191300400,1.50830029296875,-1.0191192626953125,-0.0195159912109375,-0.120574951171875
1638746350201264400,1.518264404296875,-1.0106048583984375,-0.0146636962890625,-0.121490478515625
1638746350211227100,1.52822705078125,-0.99359130859375,-0.0110015869140625,-0.1221771240234375
1638746350221190100,1.538190185546875,-0.977020263671875,-0.0086822509765625,-0.116851806640625
1638746350231153200,1.548153076171875,-0.964752197265625,-0.007171630859375,-0.108306884765625
1638746350241117200,1.5581171875,-0.9593048095703125,-0.0060272216796875,-0.1015167236328125
1638746350251080200,1.568080078125,-0.9604644775390625,-0.0084381103515625,-0.1007843017578125
1638746350261043200,1.578043212890625,-0.9676361083984375,-0.01318359375,-0.10174560546875
1638746350271006500,1.58800634765625,-0.9784088134765625,-0.0179290771484375,-0.108062744140625
1638746350280970200,1.59797021484375,-0.991607666015625,-0.0216827392578125,-0.111663818359375
1638746350290933200,1.607933349609375,-1.0003509521484375,-0.0224151611328125,-0.114471435546875
1638746350300896500,1.617896484375,-1.005096435546875,-0.020263671875,-0.11138916015625
1638746350310860300,1.6278603515625,-1.008544921875,-0.0185546875,-0.105377197265625
1638746350320823300,1.6378232421875,-1.006103515625,-0.021087646484375,-0.101959228515625
1638746350330786300,1.647786376953125,-0.9993896484375,-0.0262603759765625,-0.1067047119140625
1638746350340749300,1.657749267578125,-0.9923553466796875,-0.0314178466796875,-0.1172332763671875
1638746350350713300,1.66771337890625,-0.98712158203125,-0.0327606201171875,-0.1246337890625
1638746350360676400,1.67767626953125,-0.9930267333984375,-0.0340728759765625,-0.1348419189453125
1638746350370639400,1.687639404296875,-1.0067901611328125,-0.02325439453125,-0.1365966796875
1638746350380602400,1.697602294921875,-1.020233154296875,-0.0139007568359375,-0.128021240234375
1638746350390566400,1.70756640625,-1.0359344482421875,-0.0266265869140625,-0.1227264404296875
1638746350400529400,1.717529296875,-1.031890869140625,-0.0336456298828125,-0.114349365234375
1638746350410492200,1.7274921875,-1.0100250244140625,-0.0290985107421875,-0.1060333251953125
1638746350420455200,1.737455078125,-1.0004730224609375,-0.026947021484375,-0.101470947265625
1638746350430419200,1.747419189453125,-0.997650146484375,-0.0213470458984375,-0.1025238037109375
1638746350440382200,1.75738232421875,-0.98675537109375,-0.0134124755859375,-0.117584228515625
1638746350450345200,1.76734521484375,-0.976043701171875,-0.011749267578125,-0.1319732666015625
1638746350460308700,1.777308837890625,-0.980804443359375,-0.0162353515625,-0.1373291015625
1638746350470272800,1.787272705078125,-0.99493408203125,-0.0118560791015625,-0.1374359130859375
1638746350480235800,1.79723583984375,-1.0081024169921875,0.0026092529296875,-0.1302947998046875
1638746350490198800,1.80719873046875,-1.0165252685546875,0.0124969482421875,-0.118194580078125
1638746350500161800,1.817161865234375,-1.016021728515625,0.015411376953125,-0.11395263671875
1638746350510125800,1.827125732421875,-1.0051422119140625,0.0150909423828125,-0.121185302734375
1638746350520088800,1.8370888671875,-0.993621826171875,0.014892578125,-0.1306915283203125
1638746350530051800,1.8470517578125,-0.9874725341796875,0.0107421875,-0.1355438232421875
1638746350540015000,1.85701513671875,-0.9849395751953125,0.002166748046875,-0.134246826171875
1638746350549979000,1.866978759765625,-0.985931396484375,-0.0076751708984375,-0.13360595703125
1638746350559942000,1.87694189453125,-0.994384765625,-0.01666259765625,-0.130584716796875
1638746350569905000,1.88690478515625,-1.0090179443359375,-0.024261474609375,-0.1246490478515625
1638746350579868000,1.896867919921875,-1.018157958984375,-0.0292205810546875,-0.119903564453125
1638746350589832000,1.90683203125,-1.01666259765625,-0.033355712890625,-0.1151275634765625
1638746350599795000,1.916794921875,-1.006378173828125,-0.0384368896484375,-0.1120452880859375
1638746350609758000,1.926758056640625,-0.9940643310546875,-0.0408935546875,-0.109466552734375
1638746350619721000,1.936720947265625,-0.983795166015625,-0.043121337890625,-0.106964111328125
1638746350629685000,1.94668505859375,-0.9805450439453125,-0.0475921630859375,-0.1027069091796875
1638746350639648000,1.95664794921875,-0.9816436767578125,-0.0471649169921875,-0.1012115478515625
1638746350649611000,1.966611083984375,-0.9829864501953125,-0.0427703857421875,-0.1015472412109375
1638746350659573800,1.97657373046875,-0.9803009033203125,-0.040008544921875,-0.1067352294921875
1638746350669537800,1.986537841796875,-0.9782562255859375,-0.033782958984375,-0.1147003173828125
1638746350679500800,1.996500732421875,-0.9760589599609375,-0.0263214111328125,-0.1181182861328125
1638746350689463800,2.0064638671875,-0.9765472412109375,-0.01995849609375,-0.11785888671875
1638746350699426800,2.0164267578125,-0.98358154296875,-0.01629638671875,-0.1150970458984375
1638746350709390800,2.026390869140625,-0.9957733154296875,-0.0120697021484375,-0.1138153076171875
1638746350719353900,2.036353759765625,-1.0023345947265625,-0.00946044921875,-0.1127166748046875
1638746350729316900,2.04631689453125,-1.001373291015625,-0.0097198486328125,-0.115447998046875
1638746350739280000,2.05627978515625,-0.9966583251953125,-0.0100250244140625,-0.1217041015625
1638746350749244000,2.066243896484375,-0.9943695068359375,-0.00970458984375,-0.1303863525390625
1638746350759206700,2.07620654296875,-1.0004730224609375,-0.0121917724609375,-0.1377105712890625
1638746350769170000,2.086169921875,-1.0049896240234375,-0.01617431640625,-0.1396636962890625
1638746350779133700,2.0961337890625,-1.00665283203125,-0.017486572265625,-0.138031005859375
1638746350789097000,2.106096923828125,-1.0090484619140625,-0.0152435302734375,-0.1336822509765625
1638746350799060000,2.11606005859375,-1.013824462890625,-0.0139007568359375,-0.130218505859375
1638746350809023000,2.12602294921875,-1.0183258056640625,-0.0125885009765625,-0.1279144287109375
1638746350818987000,2.135987060546875,-1.021392822265625,-0.0139312744140625,-0.126953125
1638746350828950000,2.145949951171875,-1.0225982666015625,-0.0161895751953125,-0.1253814697265625
1638746350838913000,2.1559130859375,-1.0182952880859375,-0.0195159912109375,-0.124237060546875
1638746350848876000,2.1658759765625,-1.0099029541015625,-0.021087646484375,-0.1237030029296875
1638746350858840000,2.175840087890625,-1.0032501220703125,-0.0204315185546875,-0.1221923828125
1638746350868802800,2.185802734375,-0.99713134765625,-0.0182037353515625,-0.120361328125
1638746350878765800,2.195765869140625,-0.9966278076171875,-0.0153045654296875,-0.116180419921875
1638746350888728800,2.205728759765625,-0.9942474365234375,-0.014739990234375,-0.11199951171875
1638746350898692900,2.21569287109375,-0.987548828125,-0.014251708984375,-0.10784912109375
1638746350908655900,2.22565576171875,-0.9808502197265625,-0.014739990234375,-0.1075897216796875
1638746350918619000,2.235618896484375,-0.9741973876953125,-0.0160675048828125,-0.1103668212890625
1638746350928582000,2.245581787109375,-0.967071533203125,-0.017059326171875,-0.1114654541015625
1638746350938546000,2.2555458984375,-0.96453857421875,-0.0193939208984375,-0.1143646240234375
1638746350948509000,2.265509033203125,-0.97125244140625,-0.025634765625,-0.1137542724609375
1638746350958471700,2.2754716796875,-0.9803924560546875,-0.0305328369140625,-0.107025146484375
1638746350968434700,2.2854345703125,-0.9882049560546875,-0.0264129638671875,-0.0935211181640625
1638746350978398700,2.295398681640625,-0.99859619140625,-0.0187225341796875,-0.08544921875
1638746350988361700,2.30536181640625,-1.008758544921875,-0.0124359130859375,-0.0860748291015625
1638746350998325000,2.315324951171875,-1.00726318359375,-0.013031005859375,-0.094970703125
1638746351008288000,2.3252880859375,-1.0023345947265625,-0.0160369873046875,-0.1142730712890625
1638746351018251800,2.335251708984375,-0.999908447265625,-0.0216827392578125,-0.133514404296875
1638746351028215000,2.345215087890625,-0.996246337890625,-0.028350830078125,-0.1454925537109375
1638746351038178000,2.355177978515625,-0.9928436279296875,-0.0275115966796875,-0.1513519287109375
1638746351048140800,2.365140869140625,-0.9992828369140625,-0.0206146240234375,-0.1499786376953125
1638746351058105000,2.37510498046875,-1.0081634521484375,-0.0178070068359375,-0.14263916015625
1638746351068067800,2.38506787109375,-1.0142974853515625,-0.020263671875,-0.1334228515625
1638746351078030800,2.39503076171875,-1.0207366943359375,-0.020782470703125,-0.1292572021484375
1638746351087993900,2.404993896484375,-1.0258331298828125,-0.0202178955078125,-0.1295013427734375
1638746351097958000,2.4149580078125,-1.0243072509765625,-0.0198822021484375,-0.130462646484375
1638746351107921000,2.4249208984375,-1.012298583984375,-0.0186004638671875,-0.1304168701171875
1638746351117884000,2.4348837890625,-1.0031280517578125,-0.0184326171875,-0.1295623779296875
1638746351127847000,2.444846923828125,-1.0010223388671875,-0.0180511474609375,-0.12921142578125
1638746351137811000,2.45481103515625,-1.0050201416015625,-0.0176239013671875,-0.12908935546875
1638746351147774000,2.46477392578125,-1.009857177734375,-0.019134521484375,-0.129486083984375
1638746351157736700,2.47473681640625,-1.0061798095703125,-0.020355224609375,-0.1294708251953125
1638746351167700700,2.48470068359375,-0.9965667724609375,-0.0207366943359375,-0.1302032470703125
1638746351177663700,2.494663818359375,-0.9860992431640625,-0.020751953125,-0.1295928955078125
1638746351187626800,2.504626708984375,-0.9803924560546875,-0.0233001708984375,-0.1218109130859375
1638746351197589800,2.51458984375,-0.9797515869140625,-0.02471923828125,-0.115447998046875
1638746351207553800,2.5245537109375,-0.9832305908203125,-0.021484375,-0.1118621826171875
1638746351217516800,2.534516845703125,-0.989532470703125,-0.0207366943359375,-0.10626220703125
1638746351227479800,2.544479736328125,-0.993927001953125,-0.0211334228515625,-0.10467529296875
1638746351237443000,2.554443115234375,-0.991302490234375,-0.0218048095703125,-0.1079254150390625
1638746351247406800,2.56440673828125,-0.98455810546875,-0.021636962890625,-0.1133575439453125
1638746351257370000,2.5743701171875,-0.978973388671875,-0.021697998046875,-0.1175689697265625
1638746351267332900,2.584332763671875,-0.9735870361328125,-0.0206146240234375,-0.1175689697265625
1638746351277295900,2.5942958984375,-0.9701385498046875,-0.0189361572265625,-0.1176300048828125
1638746351287260000,2.604260009765625,-0.972930908203125,-0.016357421875,-0.115631103515625
1638746351297223000,2.614222900390625,-0.9846038818359375,-0.0148468017578125,-0.1173553466796875
1638746351307186000,2.62418603515625,-0.99822998046875,-0.015380859375,-0.1200103759765625
1638746351317149000,2.63414892578125,-1.004608154296875,-0.0171966552734375,-0.11956787109375
1638746351327113000,2.644113037109375,-1.0052490234375,-0.016632080078125,-0.121307373046875
1638746351337076000,2.654075927734375,-1.002655029296875,-0.01605224609375,-0.123291015625
1638746351347039000,2.6640390625,-1.0008392333984375,-0.0158233642578125,-0.122802734375
1638746351357001700,2.674001708984375,-1.0013885498046875,-0.0179443359375,-0.1233673095703125
1638746351366965800,2.6839658203125,-1.005859375,-0.0200653076171875,-0.12353515625
1638746351376928800,2.6939287109375,-1.0120697021484375,-0.02130126953125,-0.1239166259765625
1638746351386891800,2.703891845703125,-1.016510009765625,-0.0204925537109375,-0.124603271484375
1638746351396854800,2.713854736328125,-1.016143798828125,-0.02215576171875,-0.125885009765625
1638746351406818800,2.72381884765625,-1.0086517333984375,-0.024810791015625,-0.126007080078125
1638746351416781800,2.73378173828125,-1.002044677734375,-0.0238037109375,-0.1251373291015625
1638746351426744800,2.743744873046875,-1.00201416015625,-0.02099609375,-0.125091552734375
1638746351436708000,2.7537080078125,-1.0023651123046875,-0.019989013671875,-0.1217803955078125
1638746351446672000,2.763671875,-1.00091552734375,-0.0193023681640625,-0.119598388671875
1638746351456635000,2.773634765625,-0.99951171875,-0.017822265625,-0.1193389892578125
1638746351466598000,2.783597900390625,-1.001007080078125,-0.01641845703125,-0.121917724609375
1638746351476561000,2.793560791015625,-1.0010528564453125,-0.0181884765625,-0.12384033203125
1638746351486525000,2.80352490234375,-0.9975433349609375,-0.0192413330078125,-0.12518310546875
1638746351496488000,2.813488037109375,-0.9952392578125,-0.0194854736328125,-0.1246795654296875
1638746351506451000,2.823450927734375,-0.9958343505859375,-0.0177154541015625,-0.12261962890625
1638746351516414000,2.8334140625,-0.9974212646484375,-0.0157012939453125,-0.116790771484375
1638746351526378000,2.8433779296875,-0.997711181640625,-0.0152435302734375,-0.11407470703125
1638746351536341000,2.853341064453125,-0.9962158203125,-0.017364501953125,-0.1123809814453125
1638746351546304000,2.863303955078125,-0.9947662353515625,-0.0183868408203125,-0.1117095947265625
1638746351556266800,2.873266845703125,-0.995758056640625,-0.018524169921875,-0.113494873046875
1638746351566230800,2.883230712890625,-0.9951171875,-0.0180816650390625,-0.1151580810546875
1638746351576193800,2.89319384765625,-0.993072509765625,-0.0193023681640625,-0.11669921875
1638746351586156800,2.90315673828125,-0.989898681640625,-0.0205078125,-0.12017822265625
1638746351596120800,2.913120849609375,-0.990570068359375,-0.021392822265625,-0.1220703125
1638746351606083800,2.923083740234375,-0.99493408203125,-0.0203094482421875,-0.122222900390625
1638746351616046800,2.933046875,-0.9974212646484375,-0.0196380615234375,-0.1222686767578125
1638746351626009900,2.943009765625,-0.9978790283203125,-0.0201873779296875,-0.12335205078125
1638746351635974000,2.952973876953125,-0.996856689453125,-0.0200347900390625,-0.1225433349609375
1638746351645937000,2.96293701171875,-0.99664306640625,-0.0201263427734375,-0.121337890625
1638746351655899600,2.972899658203125,-0.99530029296875,-0.0195159912109375,-0.12109375
1638746351665863000,2.98286279296875,-0.9949798583984375,-0.019073486328125,-0.1230926513671875
1638746351675826700,2.99282666015625,-0.9952392578125,-0.0192108154296875,-0.1255035400390625
1638746351685789700,3.002789794921875,-0.996185302734375,-0.019927978515625,-0.1267547607421875
1638746351695753000,3.0127529296875,-0.99658203125,-0.0200653076171875,-0.1282958984375
1638746351705716000,3.022716064453125,-0.997222900390625,-0.0199737548828125,-0.128173828125
1638746351715680000,3.032679931640625,-0.997100830078125,-0.0203857421875,-0.12774658203125
1638746351725643000,3.04264306640625,-0.9971923828125,-0.018951416015625,-0.12530517578125
1638746351735606000,3.05260595703125,-0.996795654296875,-0.0183258056640625,-0.123016357421875
1638746351745569000,3.062569091796875,-0.9984130859375,-0.0171966552734375,-0.1214141845703125
1638746351755533000,3.072532958984375,-0.99896240234375,-0.0161895751953125,-0.1210174560546875
1638746351765495800,3.082495849609375,-0.998382568359375,-0.0165252685546875,-0.11968994140625
1638746351775458800,3.092458740234375,-0.9977569580078125,-0.0175628662109375,-0.1201019287109375
1638746351785421800,3.102421875,-0.9967803955078125,-0.0184326171875,-0.119842529296875
1638746351795385900,3.1123857421875,-0.9976959228515625,-0.01953125,-0.1200714111328125
1638746351805348900,3.122348876953125,-0.9988250732421875,-0.019683837890625,-0.119293212890625
1638746351815312000,3.132311767578125,-1.0006561279296875,-0.0198516845703125,-0.1183319091796875
1638746351825275000,3.14227490234375,-0.99920654296875,-0.020172119140625,-0.1192626953125
1638746351835239000,3.152239013671875,-0.9985504150390625,-0.0205230712890625,-0.1192626953125
1638746351845202000,3.162201904296875,-0.997039794921875,-0.01995849609375,-0.118743896484375
1638746351855164700,3.17216455078125,-0.9964599609375,-0.0194549560546875,-0.1172027587890625
1638746351865127700,3.182127685546875,-0.9974822998046875,-0.0184326171875,-0.1159820556640625
1638746351875091700,3.192091796875,-0.996795654296875,-0.016937255859375,-0.1160125732421875
1638746351885054700,3.2020546875,-0.9966888427734375,-0.0160369873046875,-0.115570068359375
1638746351895018000,3.21201806640625,-0.9976959228515625,-0.0159912109375,-0.1165771484375
1638746351904981000,3.22198095703125,-0.999298095703125,-0.0151824951171875,-0.1175994873046875
1638746351914944800,3.23194482421875,-1.0003509521484375,-0.015045166015625,-0.1183624267578125
1638746351924908000,3.241907958984375,-0.9990997314453125,-0.014678955078125,-0.11859130859375
1638746351934871000,3.25187109375,-0.997955322265625,-0.0163421630859375,-0.11981201171875
1638746351944834000,3.261833984375,-0.9968719482421875,-0.0168609619140625,-0.1197357177734375
1638746351954798000,3.271798095703125,-0.9966583251953125,-0.0175933837890625,-0.1192779541015625
1638746351964760800,3.2817607421875,-0.9966888427734375,-0.0180816650390625,-0.1197052001953125
1638746351974723800,3.291723876953125,-0.9963226318359375,-0.019500732421875,-0.1198883056640625
1638746351984687900,3.30168798828125,-0.9963531494140625,-0.0206298828125,-0.1209716796875
1638746351994651000,3.31165087890625,-0.996551513671875,-0.0201568603515625,-0.1221923828125
1638746352004614000,3.32161376953125,-0.9981842041015625,-0.020538330078125,-0.123809814453125
1638746352014577000,3.331576904296875,-0.9996337890625,-0.0197906494140625,-0.1246185302734375
1638746352024541000,3.341541015625,-0.9987640380859375,-0.02044677734375,-0.125213623046875
1638746352034504000,3.35150390625,-0.998443603515625,-0.020477294921875,-0.125579833984375
1638746352044467000,3.361467041015625,-0.9991455078125,-0.02130126953125,-0.1256256103515625
1638746352054429700,3.3714296875,-0.998016357421875,-0.020843505859375,-0.1256256103515625
1638746352064394000,3.38139404296875,-0.99749755859375,-0.020263671875,-0.1246490478515625
1638746352074356700,3.391356689453125,-0.996551513671875,-0.02001953125,-0.1238250732421875
1638746352084319700,3.40131982421875,-0.993072509765625,-0.019500732421875,-0.123565673828125
1638746352094282800,3.41128271484375,-0.9929656982421875,-0.0190582275390625,-0.1219329833984375
1638746352104246800,3.421246826171875,-0.994140625,-0.01837158203125,-0.1229095458984375
1638746352114209800,3.431209716796875,-0.9956512451171875,-0.0176849365234375,-0.1197509765625
1638746352124172800,3.4411728515625,-0.995941162109375,-0.0171661376953125,-0.119110107421875
1638746352134136000,3.451135986328125,-0.996856689453125,-0.0175933837890625,-0.1185455322265625
1638746352144099800,3.461099853515625,-0.995147705078125,-0.0167388916015625,-0.1168365478515625
1638746352154063000,3.47106298828125,-0.9921875,-0.0178070068359375,-0.1185760498046875
1638746352164025900,3.48102587890625,-0.9933319091796875,-0.0180816650390625,-0.1187896728515625
1638746352173988900,3.49098876953125,-0.9969024658203125,-0.0179443359375,-0.11810302734375
1638746352183953000,3.500952880859375,-0.9987945556640625,-0.018280029296875,-0.117401123046875
1638746352193916000,3.510916015625,-0.99908447265625,-0.01812744140625,-0.1166229248046875
1638746352203879000,3.52087890625,-0.9993133544921875,-0.0182647705078125,-0.1172027587890625
1638746352213842000,3.530842041015625,-1.0017547607421875,-0.017486572265625,-0.117645263671875
1638746352223806000,3.540805908203125,-1.0010223388671875,-0.0172119140625,-0.1176300048828125
1638746352233769000,3.55076904296875,-0.99859619140625,-0.017242431640625,-0.1195220947265625
1638746352243732000,3.56073193359375,-0.9965362548828125,-0.01763916015625,-0.120880126953125
1638746352253694700,3.57069482421875,-0.997283935546875,-0.0185394287109375,-0.121124267578125
1638746352263658800,3.58065869140625,-0.9990997314453125,-0.0182647705078125,-0.12054443359375
1638746352273621800,3.590621826171875,-1.00054931640625,-0.0183868408203125,-0.120880126953125
1638746352283584800,3.600584716796875,-0.9997711181640625,-0.0189666748046875,-0.12158203125
1638746352293547800,3.6105478515625,-0.9988250732421875,-0.0199737548828125,-0.12225341796875
1638746352303511800,3.62051171875,-0.9989776611328125,-0.0205078125,-0.1222076416015625
1638746352313474800,3.630474853515625,-0.9987640380859375,-0.01934814453125,-0.1233062744140625
1638746352323437800,3.640437744140625,-0.997344970703125,-0.0184783935546875,-0.1234893798828125
1638746352333401000,3.650401123046875,-0.9960479736328125,-0.018768310546875,-0.123260498046875
1638746352343364900,3.66036474609375,-0.9950103759765625,-0.0192718505859375,-0.1240234375
1638746352353327900,3.670327880859375,-0.996185302734375,-0.01849365234375,-0.1219024658203125
1638746352363291000,3.680290771484375,-0.9982757568359375,-0.019317626953125,-0.121124267578125
1638746352373254700,3.690254638671875,-0.9976348876953125,-0.01824951171875,-0.12152099609375
1638746352383218000,3.700218017578125,-0.996673583984375,-0.0195465087890625,-0.120819091796875
1638746352393181000,3.710180908203125,-0.9959716796875,-0.020416259765625,-0.1204681396484375
1638746352403144000,3.72014404296875,-0.993194580078125,-0.018524169921875,-0.1198577880859375
1638746352413108000,3.73010791015625,-0.9927215576171875,-0.0179901123046875,-0.120941162109375
1638746352423071000,3.740071044921875,-0.9940185546875,-0.0185089111328125,-0.1220855712890625
1638746352433034000,3.750033935546875,-0.9951629638671875,-0.018218994140625,-0.1191558837890625
1638746352442997000,3.7599970703125,-0.9958038330078125,-0.0182037353515625,-0.118865966796875
1638746352452961000,3.7699609375,-0.995819091796875,-0.017059326171875,-0.11773681640625
1638746352462923800,3.779923828125,-0.9956512451171875,-0.0163421630859375,-0.1192169189453125
1638746352472886800,3.78988671875,-0.9959716796875,-0.0163421630859375,-0.12078857421875
1638746352482849800,3.799849853515625,-0.9972991943359375,-0.017852783203125,-0.11981201171875
1638746352492813800,3.809813720703125,-0.998016357421875,-0.017425537109375,-0.119842529296875
1638746352502776800,3.81977685546875,-0.9983367919921875,-0.0186004638671875,-0.12078857421875
1638746352512739600,3.829739501953125,-0.9990386962890625,-0.019439697265625,-0.12017822265625
1638746352522702600,3.83970263671875,-0.9994354248046875,-0.019287109375,-0.12060546875
1638746352532666600,3.84966650390625,-1.0008392333984375,-0.0193328857421875,-0.120086669921875
1638746352542629600,3.859629638671875,-0.9983062744140625,-0.01904296875,-0.1193389892578125
1638746352552592600,3.869592529296875,-0.9979705810546875,-0.01953125,-0.119140625
1638746352562556000,3.879555908203125,-0.9959259033203125,-0.0198516845703125,-0.1204071044921875
1638746352572519700,3.889519775390625,-0.993896484375,-0.0188446044921875,-0.12066650390625
1638746352582482700,3.899482666015625,-0.99517822265625,-0.018768310546875,-0.121185302734375
1638746352592446000,3.909446044921875,-0.9982147216796875,-0.0189208984375,-0.1215972900390625
1638746352602408700,3.91940869140625,-1.0014190673828125,-0.0195159912109375,-0.1212615966796875
1638746352612372700,3.929372802734375,-1.0015869140625,-0.0210113525390625,-0.1226959228515625
1638746352622335700,3.939335693359375,-1.0030364990234375,-0.0212860107421875,-0.1240234375
1638746352632298800,3.949298828125,-1.0031890869140625,-0.0206298828125,-0.1251220703125
1638746352642261800,3.95926171875,-1.00146484375,-0.0188140869140625,-0.12445068359375
1638746352652225800,3.969225830078125,-0.9993896484375,-0.0176239013671875,-0.1238861083984375
1638746352662188800,3.979188720703125,-0.993682861328125,-0.0180206298828125,-0.1236419677734375
1638746352672151800,3.98915185546875,-0.991546630859375,-0.0186309814453125,-0.1224517822265625
1638746352682114800,3.99911474609375,-0.9922943115234375,-0.019287109375,-0.121002197265625
1638746352692077800,4.009077880859375,-0.9948577880859375,-0.0187835693359375,-0.1200408935546875
1638746352702041900,4.019041748046875,-0.9970550537109375,-0.0189056396484375,-0.118682861328125
1638746352712004600,4.029004638671875,-0.99627685546875,-0.0197906494140625,-0.1184844970703125
1638746352721967600,4.038967529296875,-0.9930572509765625,-0.01983642578125,-0.1192779541015625
1638746352731930600,4.0489306640625,-0.9934539794921875,-0.020538330078125,-0.120025634765625
1638746352741894700,4.058894775390625,-0.994049072265625,-0.0210113525390625,-0.1221160888671875
1638746352751857700,4.068857666015625,-0.9965667724609375,-0.020233154296875,-0.1230621337890625
1638746352761820700,4.078820556640625,-0.998565673828125,-0.018951416015625,-0.122467041015625
1638746352771784000,4.088783935546875,-0.9992523193359375,-0.0187225341796875,-0.121124267578125
1638746352781747700,4.098747802734375,-0.999237060546875,-0.01824951171875,-0.12060546875
1638746352791711000,4.1087109375,-0.998870849609375,-0.018096923828125,-0.1201019287109375
1638746352801673700,4.118673828125,-0.9985809326171875,-0.0178375244140625,-0.1200103759765625
1638746352811636700,4.12863671875,-0.9989471435546875,-0.0185394287109375,-0.120086669921875
1638746352821600800,4.138600830078125,-0.9985809326171875,-0.018524169921875,-0.12091064453125
1638746352831563800,4.148563720703125,-0.999542236328125,-0.018646240234375,-0.1212615966796875
1638746352841526800,4.15852685546875,-0.9976654052734375,-0.0194091796875,-0.1227264404296875
1638746352851489800,4.16848974609375,-0.9984893798828125,-0.0198211669921875,-0.12335205078125
1638746352861453800,4.178453857421875,-0.998992919921875,-0.0196533203125,-0.123046875
1638746352871416800,4.188416748046875,-0.99871826171875,-0.019866943359375,-0.121917724609375
1638746352881379800,4.1983798828125,-0.997314453125,-0.0191802978515625,-0.1213531494140625
1638746352891342600,4.208342529296875,-0.9975433349609375,-0.01904296875,-0.1221466064453125
1638746352901307000,4.218306884765625,-0.99884033203125,-0.0186309814453125,-0.1219635009765625
1638746352911269600,4.22826953125,-0.998504638671875,-0.018463134765625,-0.1228485107421875
1638746352921232600,4.238232666015625,-0.9981689453125,-0.0176239013671875,-0.1220855712890625
1638746352931196700,4.24819677734375,-0.9975128173828125,-0.0185546875,-0.121551513671875
1638746352941159700,4.25815966796875,-0.9959869384765625,-0.0191497802734375,-0.121002197265625
1638746352951122700,4.268122802734375,-0.9973907470703125,-0.0192413330078125,-0.1214599609375
1638746352961085700,4.278085693359375,-0.9988250732421875,-0.01922607421875,-0.1208953857421875
1638746352971049700,4.2880498046875,-0.997711181640625,-0.018768310546875,-0.1197357177734375
1638746352981012700,4.2980126953125,-0.9950714111328125,-0.0185546875,-0.1201324462890625
1638746352990975700,4.307975830078125,-0.994140625,-0.019073486328125,-0.121368408203125
1638746353000938800,4.317938720703125,-0.99505615234375,-0.0195465087890625,-0.1217803955078125
1638746353010902500,4.327902587890625,-0.9959869384765625,-0.0184326171875,-0.1195831298828125
1638746353020865800,4.33786572265625,-0.9962158203125,-0.01824951171875,-0.1191253662109375
1638746353030828800,4.347828857421875,-0.9936676025390625,-0.0178070068359375,-0.1190032958984375
1638746353040791800,4.357791748046875,-0.9912567138671875,-0.01666259765625,-0.1206207275390625
1638746353050755800,4.367755859375,-0.9915008544921875,-0.018585205078125,-0.1222381591796875
1638746353060718800,4.37771875,-0.9949951171875,-0.0201568603515625,-0.1228179931640625
1638746353070681900,4.387681884765625,-1.0020599365234375,-0.021453857421875,-0.1222381591796875
1638746353080644900,4.397644775390625,-1.0074920654296875,-0.0211334228515625,-0.1216583251953125
1638746353090609000,4.40760888671875,-1.0074462890625,-0.0198211669921875,-0.1223297119140625
1638746353100572000,4.417572021484375,-1.003662109375,-0.0176239013671875,-0.123504638671875
1638746353110536000,4.427535888671875,-0.9967193603515625,-0.018768310546875,-0.1234588623046875
1638746353120498700,4.437498779296875,-0.99151611328125,-0.018829345703125,-0.121734619140625
1638746353130461700,4.447461669921875,-0.9901275634765625,-0.01800537109375,-0.120574951171875
1638746353140425700,4.45742578125,-0.99139404296875,-0.018951416015625,-0.1215057373046875
1638746353150388700,4.467388671875,-0.99700927734375,-0.019744873046875,-0.1206207275390625
1638746353160351700,4.477351806640625,-1.0011444091796875,-0.0200653076171875,-0.119232177734375
1638746353170314800,4.487314697265625,-1.00164794921875,-0.019805908203125,-0.118316650390625
1638746353180278800,4.49727880859375,-0.9992828369140625,-0.018707275390625,-0.1210479736328125
1638746353190241800,4.50724169921875,-0.9978485107421875,-0.017913818359375,-0.123870849609375
1638746353200204800,4.517204833984375,-0.9975738525390625,-0.0180816650390625,-0.1239166259765625
1638746353210168800,4.5271689453125,-0.99835205078125,-0.0188446044921875,-0.1225128173828125
1638746353220131800,4.5371318359375,-0.9990997314453125,-0.017913818359375,-0.1233062744140625
1638746353230094600,4.547094482421875,-0.998321533203125,-0.01751708984375,-0.1232757568359375
1638746353240057600,4.5570576171875,-0.9975738525390625,-0.0172576904296875,-0.1217193603515625
1638746353250021600,4.567021728515625,-0.9970245361328125,-0.01763916015625,-0.1220245361328125
1638746353259984600,4.576984619140625,-0.99664306640625,-0.017181396484375,-0.12054443359375
1638746353269947600,4.58694775390625,-0.998931884765625,-0.0178375244140625,-0.1198272705078125
1638746353279911000,4.596910888671875,-0.9982452392578125,-0.018310546875,-0.12054443359375
1638746353289874700,4.606874755859375,-0.995880126953125,-0.019622802734375,-0.120086669921875
1638746353299838000,4.616837890625,-0.9936676025390625,-0.0196380615234375,-0.12066650390625
1638746353309801000,4.626801025390625,-0.9950714111328125,-0.01922607421875,-0.1206512451171875
1638746353319763700,4.636763671875,-0.9959869384765625,-0.01849365234375,-0.1210479736328125
1638746353329727700,4.646727783203125,-0.99652099609375,-0.0188140869140625,-0.1218109130859375
1638746353339690800,4.656690673828125,-0.99688720703125,-0.0190277099609375,-0.121246337890625
1638746353349653800,4.66665380859375,-0.996002197265625,-0.018341064453125,-0.12017822265625
1638746353359616800,4.67661669921875,-0.9956207275390625,-0.0177459716796875,-0.1208343505859375
1638746353369580800,4.686580810546875,-0.998199462890625,-0.01800537109375,-0.120697021484375
1638746353379543800,4.696543701171875,-0.997650146484375,-0.0189666748046875,-0.1219635009765625
1638746353389506800,4.7065068359375,-0.997222900390625,-0.019256591796875,-0.120880126953125
1638746353399470800,4.716470947265625,-0.995513916015625,-0.01947021484375,-0.1216888427734375
1638746353409433900,4.726433837890625,-0.9962310791015625,-0.018798828125,-0.120513916015625
1638746353419396600,4.736396728515625,-0.9971466064453125,-0.019683837890625,-0.1210479736328125
1638746353429359600,4.746359619140625,-0.99658203125,-0.0187225341796875,-0.1220855712890625
1638746353439323600,4.75632373046875,-0.998565673828125,-0.0184783935546875,-0.1216583251953125
1638746353449286700,4.76628662109375,-1.0001068115234375,-0.019012451171875,-0.122589111328125
1638746353459249700,4.776249755859375,-1.001190185546875,-0.01849365234375,-0.1227874755859375
1638746353469212400,4.78621240234375,-0.999603271484375,-0.0181732177734375,-0.12164306640625
1638746353479176400,4.796176513671875,-0.997344970703125,-0.0182037353515625,-0.1214599609375
1638746353489139500,4.806139404296875,-0.9951934814453125,-0.0178375244140625,-0.1207275390625
1638746353499102700,4.816102783203125,-0.9950408935546875,-0.0176849365234375,-0.1207733154296875
1638746353509065700,4.826065673828125,-0.996368408203125,-0.0183258056640625,-0.11895751953125
1638746353519029500,4.836029541015625,-0.9963531494140625,-0.018798828125,-0.1192474365234375
1638746353528992800,4.84599267578125,-0.9978179931640625,-0.0192108154296875,-0.12017822265625
1638746353538955800,4.855955810546875,-0.9968109130859375,-0.0183868408203125,-0.1197662353515625
1638746353548918800,4.865918701171875,-0.995269775390625,-0.0175933837890625,-0.120269775390625
1638746353558882800,4.8758828125,-0.995574951171875,-0.019775390625,-0.1215972900390625
1638746353568845800,4.885845703125,-0.9958953857421875,-0.0194091796875,-0.1215057373046875
1638746353578808600,4.89580859375,-0.997039794921875,-0.0181884765625,-0.1197052001953125
1638746353588771600,4.905771484375,-0.99688720703125,-0.01800537109375,-0.1198883056640625
1638746353598735600,4.915735595703125,-0.9959716796875,-0.0180511474609375,-0.1200103759765625
1638746353608698600,4.92569873046875,-0.9961090087890625,-0.017791748046875,-0.12103271484375
1638746353618661600,4.93566162109375,-0.9990081787109375,-0.0170135498046875,-0.121978759765625
1638746353628624600,4.945624755859375,-0.9994049072265625,-0.017059326171875,-0.12091064453125
1638746353638588700,4.955588623046875,-0.99871826171875,-0.017730712890625,-0.1209564208984375
1638746353648551700,4.9655517578125,-0.99609375,-0.0187530517578125,-0.121612548828125
1638746353658514700,4.9755146484375,-0.995330810546875,-0.0185089111328125,-0.121124267578125
1638746353668477400,4.9854775390625,-0.9974365234375,-0.018829345703125,-0.12200927734375
1638746353678441500,4.99544140625,-0.9989471435546875,-0.018707275390625,-0.1200408935546875
1638746353688404500,5.005404541015625,-0.9989166259765625,-0.0191650390625,-0.1196746826171875
1638746353698367500,5.015367431640625,-0.9972076416015625,-0.01953125,-0.12030029296875
1638746353708331500,5.02533154296875,-0.996002197265625,-0.0196075439453125,-0.1209716796875
1638746353718294500,5.03529443359375,-0.996978759765625,-0.0192718505859375,-0.121124267578125
1638746353728257500,5.045257568359375,-0.9979705810546875,-0.0186614990234375,-0.121368408203125
1638746353738220800,5.055220703125,-0.997833251953125,-0.0191802978515625,-0.1215972900390625
1638746353748184600,5.0651845703125,-0.9983978271484375,-0.019256591796875,-0.122283935546875
1638746353758147800,5.07514794921875,-0.9987640380859375,-0.0179595947265625,-0.1223297119140625
1638746353768110600,5.085110595703125,-0.99957275390625,-0.01824951171875,-0.1215362548828125
1638746353778073600,5.095073486328125,-0.999603271484375,-0.0176849365234375,-0.1204681396484375
1638746353788037600,5.10503759765625,-0.996551513671875,-0.0179901123046875,-0.1205596923828125
1638746353798000600,5.115000732421875,-0.99432373046875,-0.0177764892578125,-0.1209259033203125
1638746353807963600,5.124963623046875,-0.9937896728515625,-0.0178070068359375,-0.1209869384765625
1638746353817926700,5.1349267578125,-0.9967193603515625,-0.01824951171875,-0.12066650390625
1638746353827890700,5.144890625,-0.9978790283203125,-0.0186004638671875,-0.1204376220703125
1638746353837853700,5.154853759765625,-0.99951171875,-0.0177001953125,-0.120697021484375
1638746353847816700,5.164816650390625,-0.9987030029296875,-0.0179290771484375,-0.1190032958984375
1638746353857779700,5.17477978515625,-0.9962615966796875,-0.0184783935546875,-0.1197357177734375
1638746353867743700,5.18474365234375,-0.995513916015625,-0.0193634033203125,-0.1195068359375
1638746353877706500,5.19470654296875,-0.995941162109375,-0.020050048828125,-0.1202850341796875
1638746353887669500,5.20466943359375,-0.9959716796875,-0.0192718505859375,-0.12127685546875
1638746353897632500,5.214632568359375,-0.9971466064453125,-0.018157958984375,-0.1205596923828125
1638746353907596500,5.224596435546875,-0.99786376953125,-0.017333984375,-0.1207122802734375
1638746353917559600,5.2345595703125,-0.99725341796875,-0.0178070068359375,-0.1207122802734375
1638746353927522600,5.2445224609375,-0.99725341796875,-0.0185699462890625,-0.1201324462890625
1638746353937485600,5.254485595703125,-0.9971160888671875,-0.0186767578125,-0.1197967529296875
1638746353947449600,5.26444970703125,-0.9990386962890625,-0.01861572265625,-0.11993408203125
1638746353957412600,5.27441259765625,-0.999359130859375,-0.0185394287109375,-0.1212310791015625
1638746353967375600,5.284375732421875,-0.99847412109375,-0.0186004638671875,-0.1214447021484375
1638746353977339600,5.294339599609375,-0.997467041015625,-0.019744873046875,-0.12103271484375
1638746353987302700,5.304302734375,-0.9977569580078125,-0.019378662109375,-0.1214447021484375
1638746353997265700,5.314265625,-0.997100830078125,-0.019500732421875,-0.1209564208984375
1638746354007228700,5.324228759765625,-0.9974212646484375,-0.0189208984375,-0.1215972900390625
1638746354017192700,5.334192626953125,-0.997406005859375,-0.0194244384765625,-0.1208953857421875
1638746354027155700,5.34415576171875,-0.99822998046875,-0.01800537109375,-0.1200714111328125
1638746354037118700,5.35411865234375,-0.9973297119140625,-0.017913818359375,-0.1217498779296875
1638746354047081700,5.364081787109375,-0.996673583984375,-0.0179901123046875,-0.121978759765625
1638746354057045800,5.374045654296875,-0.9971160888671875,-0.0183563232421875,-0.121185302734375
1638746354067008800,5.3840087890625,-0.996612548828125,-0.0184478759765625,-0.121246337890625
1638746354076971500,5.393971435546875,-0.9964447021484375,-0.0186614990234375,-0.1198272705078125
1638746354086934500,5.4039345703125,-0.9964752197265625,-0.0182037353515625,-0.120880126953125
1638746354096898600,5.413898681640625,-0.9976959228515625,-0.01806640625,-0.1210479736328125
1638746354106861600,5.423861572265625,-0.99847412109375,-0.01873779296875,-0.120819091796875
1638746354116824600,5.433824462890625,-0.998077392578125,-0.0183258056640625,-0.1209869384765625
1638746354126787600,5.44378759765625,-0.99700927734375,-0.0182952880859375,-0.1217193603515625
1638746354136751600,5.453751708984375,-0.996826171875,-0.0180206298828125,-0.1211395263671875
1638746354146714600,5.463714599609375,-0.9961700439453125,-0.0179595947265625,-0.1198272705078125
1638746354156677600,5.473677734375,-0.9956207275390625,-0.0184326171875,-0.1196136474609375
1638746354166640600,5.483640625,-0.9967193603515625,-0.0185089111328125,-0.1196746826171875
1638746354176604700,5.493604736328125,-0.9980010986328125,-0.0175933837890625,-0.1214752197265625
1638746354186567400,5.5035673828125,-0.9996337890625,-0.0177764892578125,-0.1219024658203125
1638746354196530700,5.51353076171875,-1.000091552734375,-0.0172271728515625,-0.1227569580078125
1638746354206493700,5.52349365234375,-0.999298095703125,-0.017486572265625,-0.12103271484375
1638746354216457700,5.533457763671875,-0.9958343505859375,-0.0178680419921875,-0.1218414306640625
1638746354226420700,5.543420654296875,-0.9936981201171875,-0.01873779296875,-0.122100830078125
1638746354236383700,5.5533837890625,-0.9970703125,-0.01959228515625,-0.1226043701171875
1638746354246346800,5.5633466796875,-0.9993133544921875,-0.0190887451171875,-0.1219329833984375
1638746354256310800,5.573310791015625,-1.001312255859375,-0.0187530517578125,-0.1206817626953125
1638746354266273800,5.583273681640625,-0.99951171875,-0.01898193359375,-0.120208740234375
1638746354276236500,5.593236572265625,-0.996185302734375,-0.018280029296875,-0.1207427978515625
1638746354286200600,5.60320068359375,-0.994659423828125,-0.0184326171875,-0.120941162109375
1638746354296163600,5.61316357421875,-0.9951171875,-0.018402099609375,-0.1209259033203125
1638746354306126600,5.623126708984375,-0.99578857421875,-0.0182647705078125,-0.11932373046875
1638746354316089600,5.633089599609375,-0.9960479736328125,-0.0193634033203125,-0.119720458984375
1638746354326053600,5.6430537109375,-0.9966888427734375,-0.019256591796875,-0.121185302734375
1638746354336016600,5.6530166015625,-0.998382568359375,-0.0195465087890625,-0.120941162109375
1638746354345979600,5.662979736328125,-0.999603271484375,-0.0191192626953125,-0.12042236328125
1638746354355942700,5.672942626953125,-0.9988250732421875,-0.018768310546875,-0.119903564453125
1638746354365906700,5.68290673828125,-0.998016357421875,-0.01776123046875,-0.1216278076171875
1638746354375869400,5.692869384765625,-0.99713134765625,-0.0181884765625,-0.1226806640625
1638746354385832400,5.70283251953125,-0.99676513671875,-0.017822265625,-0.121826171875
1638746354395795500,5.71279541015625,-0.996734619140625,-0.01812744140625,-0.12115478515625
1638746354405759500,5.722759521484375,-0.998565673828125,-0.0178680419921875,-0.1207122802734375
1638746354415722500,5.732722412109375,-0.9990997314453125,-0.0170440673828125,-0.1206207275390625
1638746354425685800,5.742685791015625,-0.9974822998046875,-0.0177001953125,-0.1197052001953125
1638746354435648800,5.752648681640625,-0.995147705078125,-0.0182647705078125,-0.1195526123046875
1638746354445612500,5.762612548828125,-0.993133544921875,-0.0193939208984375,-0.1209869384765625
1638746354455575800,5.772575927734375,-0.9957275390625,-0.019683837890625,-0.121337890625
1638746354465538300,5.782538330078125,-0.9967498779296875,-0.0196990966796875,-0.121856689453125
1638746354475501000,5.7925009765625,-0.9981536865234375,-0.0189056396484375,-0.1211700439453125
1638746354485465300,5.80246533203125,-0.9980010986328125,-0.0180511474609375,-0.1216888427734375
1638746354495428000,5.812427978515625,-0.9965362548828125,-0.018096923828125,-0.120819091796875
1638746354505391000,5.82239111328125,-0.9963226318359375,-0.017822265625,-0.1197052001953125
1638746354515354000,5.83235400390625,-0.99761962890625,-0.0178680419921875,-0.1191253662109375
1638746354525318100,5.842318115234375,-0.9980621337890625,-0.018402099609375,-0.1209564208984375
1638746354535281200,5.85228125,-0.9984283447265625,-0.0186920166015625,-0.121124267578125
1638746354545244200,5.862244140625,-0.997283935546875,-0.019805908203125,-0.1210784912109375
1638746354555207200,5.872207275390625,-0.9971771240234375,-0.019744873046875,-0.1214447021484375
1638746354565171200,5.882171142578125,-0.99652099609375,-0.018646240234375,-0.1214599609375
1638746354575134200,5.89213427734375,-0.997467041015625,-0.0194091796875,-0.1215362548828125
1638746354585097000,5.902096923828125,-0.9983978271484375,-0.0200347900390625,-0.1204833984375
1638746354595061000,5.91206103515625,-0.9984130859375,-0.01824951171875,-0.1205291748046875
1638746354605024000,5.92202392578125,-0.9984130859375,-0.017425537109375,-0.1213226318359375
1638746354614987000,5.931987060546875,-0.9971466064453125,-0.0175323486328125,-0.121246337890625
1638746354624950300,5.9419501953125,-0.9954681396484375,-0.01806640625,-0.12115478515625
1638746354634914000,5.9519140625,-0.995330810546875,-0.017852783203125,-0.12164306640625
1638746354644877300,5.961877197265625,-0.9963836669921875,-0.01751708984375,-0.121063232421875
1638746354654840300,5.97184033203125,-0.9972381591796875,-0.017974853515625,-0.11993408203125
1638746354664803300,5.98180322265625,-0.9979248046875,-0.0182952880859375,-0.1206817626953125
1638746354674767400,5.991767333984375,-0.997100830078125,-0.0179595947265625,-0.1201934814453125
1638746354684730400,6.00173046875,-0.9981842041015625,-0.018096923828125,-0.1212158203125
1638746354694693000,6.011693115234375,-0.9971771240234375,-0.0183868408203125,-0.121246337890625
1638746354704656100,6.02165625,-0.997283935546875,-0.0186004638671875,-0.1214599609375
1638746354714620200,6.0316201171875,-0.9965362548828125,-0.0184326171875,-0.122528076171875
1638746354724583200,6.041583251953125,-0.9954681396484375,-0.018402099609375,-0.1208953857421875
1638746354734546200,6.051546142578125,-0.9958953857421875,-0.0186614990234375,-0.11968994140625
1638746354744509200,6.06150927734375,-0.996978759765625,-0.018768310546875,-0.1201171875
1638746354754473200,6.07147314453125,-0.9969329833984375,-0.01837158203125,-0.120330810546875
1638746354764436200,6.081436279296875,-0.99859619140625,-0.0182037353515625,-0.1217193603515625
1638746354774399200,6.091399169921875,-0.999725341796875,-0.017852783203125,-0.1226806640625
1638746354784362000,6.101362060546875,-0.998504638671875,-0.0175933837890625,-0.123321533203125
1638746354794326000,6.111325927734375,-0.9976959228515625,-0.0179290771484375,-0.1234893798828125
1638746354804289000,6.1212890625,-0.99688720703125,-0.017913818359375,-0.1227264404296875
1638746354814252000,6.131251953125,-0.9980010986328125,-0.0188751220703125,-0.1222991943359375
1638746354824215300,6.14121533203125,-0.9984130859375,-0.0185089111328125,-0.1208343505859375
1638746354834179000,6.151178955078125,-0.998687744140625,-0.0185699462890625,-0.1191253662109375
1638746354844142000,6.16114208984375,-0.995941162109375,-0.019195556640625,-0.11859130859375
1638746354854105300,6.171105224609375,-0.99420166015625,-0.0198822021484375,-0.1198577880859375
1638746354864068400,6.181068359375,-0.9935760498046875,-0.01953125,-0.120361328125
1638746354874032400,6.191032470703125,-0.9961090087890625,-0.0195159912109375,-0.12103271484375
1638746354883995100,6.2009951171875,-0.9981231689453125,-0.0188751220703125,-0.12158203125
1638746354893958100,6.210958251953125,-0.9972076416015625,-0.0182342529296875,-0.121246337890625
1638746354903922200,6.220922119140625,-0.9981842041015625,-0.0176544189453125,-0.1220703125
1638746354913885200,6.23088525390625,-0.9984893798828125,-0.017364501953125,-0.1216888427734375
1638746354923848200,6.24084814453125,-0.9988861083984375,-0.017120361328125,-0.1206512451171875
1638746354933811200,6.250811279296875,-0.99859619140625,-0.01751708984375,-0.1214599609375
1638746354943775200,6.260775146484375,-0.998046875,-0.0177764892578125,-0.120849609375
1638746354953738200,6.27073828125,-0.9965667724609375,-0.01776123046875,-0.1209259033203125
1638746354963701200,6.280701171875,-0.995147705078125,-0.0180511474609375,-0.1212615966796875
1638746354973664300,6.290664306640625,-0.9960784912109375,-0.01885986328125,-0.1206512451171875
1638746354983628300,6.300628173828125,-0.997955322265625,-0.0186614990234375,-0.120880126953125
1638746354993591000,6.310591064453125,-0.99774169921875,-0.019256591796875,-0.120758056640625
1638746355003554000,6.320553955078125,-0.9972076416015625,-0.018798828125,-0.11993408203125
1638746355013517000,6.33051708984375,-0.99591064453125,-0.0181427001953125,-0.1204833984375
1638746355023481000,6.340481201171875,-0.9964752197265625,-0.0181427001953125,-0.122283935546875
1638746355033444000,6.350444091796875,-0.99591064453125,-0.0179443359375,-0.1225738525390625
1638746355043407000,6.360406982421875,-0.9976806640625,-0.018890380859375,-0.1216583251953125
1638746355053370000,6.3703701171875,-0.99774169921875,-0.0187225341796875,-0.1208343505859375
1638746355063334100,6.380334228515625,-0.9976806640625,-0.0181121826171875,-0.12103271484375
1638746355073297200,6.390297119140625,-0.9964752197265625,-0.01849365234375,-0.1207427978515625
1638746355083260200,6.40026025390625,-0.99658203125,-0.018585205078125,-0.1202545166015625
1638746355093223200,6.41022314453125,-0.99847412109375,-0.018402099609375,-0.1203155517578125
1638746355103187200,6.420187255859375,-0.999786376953125,-0.017425537109375,-0.1207275390625
1638746355113150200,6.430150146484375,-0.99810791015625,-0.0179290771484375,-0.120819091796875
1638746355123113200,6.44011328125,-0.9972991943359375,-0.018585205078125,-0.120361328125
1638746355133076200,6.450076171875,-0.99603271484375,-0.017974853515625,-0.1217041015625
1638746355143040300,6.460040283203125,-0.997833251953125,-0.0179595947265625,-0.1215972900390625
1638746355153003300,6.470003173828125,-0.9983673095703125,-0.0188140869140625,-0.1220703125
1638746355162966300,6.47996630859375,-0.997650146484375,-0.019073486328125,-0.1208343505859375
1638746355172929300,6.48992919921875,-0.9972991943359375,-0.0196533203125,-0.119720458984375
1638746355182893300,6.499893310546875,-0.9979095458984375,-0.018341064453125,-0.1197509765625
1638746355192856000,6.50985595703125,-0.9976348876953125,-0.017791748046875,-0.1199798583984375
1638746355202819000,6.519819091796875,-0.99615478515625,-0.017913818359375,-0.1210784912109375
1638746355212783000,6.529783203125,-0.9953765869140625,-0.0186767578125,-0.121185302734375
1638746355222746000,6.53974609375,-0.9951171875,-0.018951416015625,-0.1198577880859375
1638746355232709000,6.549709228515625,-0.9965972900390625,-0.0188446044921875,-0.12158203125
1638746355242672000,6.559672119140625,-0.9971160888671875,-0.0194091796875,-0.122161865234375
1638746355252636200,6.56963623046875,-0.997711181640625,-0.0187530517578125,-0.1216583251953125
1638746355262599200,6.57959912109375,-0.997406005859375,-0.0191192626953125,-0.12054443359375
1638746355272562200,6.589562255859375,-0.9987640380859375,-0.0182342529296875,-0.120330810546875
1638746355282525200,6.599525146484375,-0.998016357421875,-0.01800537109375,-0.1212005615234375
1638746355292489200,6.6094892578125,-0.99700927734375,-0.018798828125,-0.12054443359375
1638746355302452000,6.619451904296875,-0.996490478515625,-0.018096923828125,-0.1198272705078125
1638746355312415200,6.629415283203125,-0.9970245361328125,-0.01837158203125,-0.1220703125
1638746355322378200,6.639378173828125,-0.997161865234375,-0.01849365234375,-0.12127685546875
1638746355332342300,6.64934228515625,-0.9970703125,-0.0181884765625,-0.121490478515625
1638746355342305300,6.65930517578125,-0.996734619140625,-0.018157958984375,-0.1203460693359375
1638746355352268300,6.669268310546875,-0.99603271484375,-0.0175628662109375,-0.1197357177734375
1638746355362231300,6.679231201171875,-0.9970855712890625,-0.0173797607421875,-0.121795654296875
1638746355372195300,6.6891953125,-0.9999237060546875,-0.018402099609375,-0.122894287109375
1638746355382158300,6.699158447265625,-0.999725341796875,-0.0183563232421875,-0.1222686767578125
1638746355392121000,6.70912109375,-0.9984588623046875,-0.017852783203125,-0.12109375
1638746355402084000,6.719083984375,-0.997344970703125,-0.019500732421875,-0.1203765869140625
1638746355412048100,6.729048095703125,-0.996734619140625,-0.019775390625,-0.1213531494140625
1638746355422011100,6.73901123046875,-0.99749755859375,-0.020050048828125,-0.120361328125
1638746355431974100,6.74897412109375,-0.998260498046875,-0.0202178955078125,-0.1190185546875
1638746355441937200,6.758937255859375,-0.99725341796875,-0.0202789306640625,-0.1191558837890625
1638746355451901200,6.768901123046875,-0.9963836669921875,-0.0194091796875,-0.1193695068359375
1638746355461865000,6.778864990234375,-0.995941162109375,-0.01953125,-0.1206817626953125
1638746355471828000,6.788827880859375,-0.9944915771484375,-0.019012451171875,-0.121185302734375
1638746355481790700,6.798790771484375,-0.9962310791015625,-0.0179901123046875,-0.120819091796875
1638746355491754800,6.808754638671875,-0.998046875,-0.0179443359375,-0.1204681396484375
1638746355501717800,6.8187177734375,-0.99871826171875,-0.0181884765625,-0.1218414306640625
1638746355511680800,6.8286806640625,-0.9986724853515625,-0.0191192626953125,-0.1215972900390625
1638746355521644800,6.838644775390625,-0.999359130859375,-0.0182952880859375,-0.1216888427734375
1638746355531607800,6.84860791015625,-0.9984130859375,-0.0183868408203125,-0.1209869384765625
1638746355541570800,6.85857080078125,-0.9969482421875,-0.0181884765625,-0.12152099609375
1638746355551533800,6.868533935546875,-0.9958343505859375,-0.0170745849609375,-0.1219024658203125
1638746355561497900,6.878497802734375,-0.99560546875,-0.018035888671875,-0.121826171875
1638746355571460900,6.8884609375,-0.9966583251953125,-0.0180816650390625,-0.121551513671875
1638746355581423900,6.898423828125,-0.9986114501953125,-0.0174102783203125,-0.1205291748046875
1638746355591387000,6.908386962890625,-0.9985504150390625,-0.0179901123046875,-0.1201629638671875
1638746355601351000,6.918350830078125,-0.9980316162109375,-0.0189666748046875,-0.120574951171875
1638746355611314000,6.92831396484375,-0.9970550537109375,-0.01910400390625,-0.1205596923828125
1638746355621277000,6.93827685546875,-0.9971771240234375,-0.0193023681640625,-0.12115478515625
1638746355631240000,6.948239990234375,-0.996063232421875,-0.0194549560546875,-0.1210174560546875
1638746355641204000,6.958203857421875,-0.996185302734375,-0.0187225341796875,-0.1209716796875
1638746355651167000,6.9681669921875,-0.99786376953125,-0.019073486328125,-0.122344970703125
1638746355661130000,6.9781298828125,-0.9983367919921875,-0.0184783935546875,-0.1208343505859375
1638746355671093000,6.988093017578125,-0.997344970703125,-0.0172119140625,-0.1205902099609375
1638746355681057000,6.99805712890625,-0.9970550537109375,-0.0181732177734375,-0.120880126953125
1638746355691019800,7.008019775390625,-0.997039794921875,-0.018585205078125,-0.11993408203125
1638746355700982800,7.017982666015625,-0.9968719482421875,-0.0186309814453125,-0.1192626953125
1638746355710945800,7.02794580078125,-0.9984130859375,-0.019134521484375,-0.1205291748046875
1638746355720909800,7.037909912109375,-0.9978485107421875,-0.0188446044921875,-0.12188720703125
1638746355730872800,7.047872802734375,-0.9974365234375,-0.0184326171875,-0.1213226318359375
1638746355740835800,7.0578359375,-0.99688720703125,-0.019073486328125,-0.12158203125
1638746355750798800,7.067798828125,-0.9972991943359375,-0.018798828125,-0.121063232421875
1638746355760763000,7.077762939453125,-0.9979705810546875,-0.0183868408203125,-0.12091064453125
1638746355770726000,7.087725830078125,-0.9985809326171875,-0.018585205078125,-0.121368408203125
1638746355780688600,7.097688720703125,-0.998321533203125,-0.0183868408203125,-0.1202545166015625
1638746355790652000,7.10765185546875,-0.998016357421875,-0.0179901123046875,-0.119842529296875
1638746355800615700,7.11761572265625,-0.997100830078125,-0.0186767578125,-0.1199493408203125
1638746355810579000,7.127578857421875,-0.9959716796875,-0.0182647705078125,-0.12066650390625
1638746355820542000,7.1375419921875,-0.9967498779296875,-0.0187530517578125,-0.1208343505859375
1638746355830505700,7.147505615234375,-0.9965972900390625,-0.0192718505859375,-0.120513916015625
1638746355840469000,7.157468994140625,-0.9967803955078125,-0.0186004638671875,-0.1207122802734375
1638746355850432000,7.167431884765625,-0.9974365234375,-0.01971435546875,-0.121368408203125
1638746355860395000,7.17739501953125,-0.997222900390625,-0.0193634033203125,-0.1208038330078125
1638746355870359000,7.187359130859375,-0.9982757568359375,-0.0188751220703125,-0.11981201171875
1638746355880322000,7.197322021484375,-0.9987030029296875,-0.0184173583984375,-0.1198272705078125
1638746355890284800,7.207284912109375,-0.998046875,-0.0186920166015625,-0.1199188232421875
1638746355900247800,7.217247802734375,-0.997222900390625,-0.0184783935546875,-0.1210174560546875
1638746355910211800,7.2272119140625,-0.9959259033203125,-0.01837158203125,-0.1215057373046875
1638746355920174800,7.2371748046875,-0.99755859375,-0.018890380859375,-0.1204986572265625
1638746355930137900,7.247137939453125,-0.9955902099609375,-0.018341064453125,-0.1188812255859375
1638746355940100900,7.257100830078125,-0.9961395263671875,-0.018341064453125,-0.119537353515625
1638746355950065000,7.26706494140625,-0.99676513671875,-0.01739501953125,-0.1202239990234375
1638746355960028000,7.27702783203125,-0.997802734375,-0.0167999267578125,-0.12158203125
1638746355969991000,7.286990966796875,-0.9998931884765625,-0.018035888671875,-0.1231231689453125
1638746355979953700,7.29695361328125,-0.9993896484375,-0.0183563232421875,-0.121734619140625
1638746355989918000,7.30691796875,-0.998199462890625,-0.0179290771484375,-0.120849609375
1638746355999880700,7.316880615234375,-0.996429443359375,-0.0187835693359375,-0.1209869384765625
1638746356009843700,7.32684375,-0.996337890625,-0.0190582275390625,-0.1206512451171875
1638746356019807000,7.336806884765625,-0.9972991943359375,-0.01922607421875,-0.1208648681640625
1638746356029770800,7.346770751953125,-0.998992919921875,-0.0195159912109375,-0.1192779541015625
1638746356039733800,7.356733642578125,-0.998382568359375,-0.0193939208984375,-0.118682861328125
1638746356049697000,7.366697021484375,-0.996429443359375,-0.01910400390625,-0.119537353515625
1638746356059660000,7.376659912109375,-0.9951324462890625,-0.0199127197265625,-0.1199493408203125
1638746356069624000,7.3866240234375,-0.9953460693359375,-0.0192718505859375,-0.1214752197265625
1638746356079587000,7.396587158203125,-0.9968414306640625,-0.0192413330078125,-0.120513916015625
1638746356089549800,7.4065498046875,-0.9990386962890625,-0.018218994140625,-0.12188720703125
1638746356099512800,7.416512939453125,-0.9993743896484375,-0.0190582275390625,-0.122802734375
1638746356109476900,7.426476806640625,-0.9987030029296875,-0.018951416015625,-0.1217498779296875
1638746356119440000,7.43643994140625,-0.9976806640625,-0.0186767578125,-0.1208648681640625
1638746356129403000,7.44640283203125,-0.99774169921875,-0.0176849365234375,-0.121307373046875
1638746356139366000,7.456365966796875,-0.9981231689453125,-0.01788330078125,-0.1200714111328125
1638746356149330000,7.466329833984375,-0.9967041015625,-0.0175018310546875,-0.121307373046875
1638746356159293000,7.47629296875,-0.9956207275390625,-0.0178070068359375,-0.1215362548828125
1638746356169256000,7.486255859375,-0.9956512451171875,-0.018585205078125,-0.1213836669921875
1638746356179218700,7.49621875,-0.997711181640625,-0.0181884765625,-0.1204071044921875
1638746356189183000,7.506182861328125,-0.998260498046875,-0.0188751220703125,-0.1189117431640625
1638746356199145700,7.516145751953125,-0.9975433349609375,-0.0189361572265625,-0.1201324462890625
1638746356209108700,7.526108642578125,-0.9964599609375,-0.0193023681640625,-0.1202239990234375
1638746356219072800,7.53607275390625,-0.995849609375,-0.0186309814453125,-0.1207733154296875
1638746356229035800,7.546035888671875,-0.996917724609375,-0.017852783203125,-0.12030029296875
1638746356238998800,7.555998779296875,-0.997772216796875,-0.01776123046875,-0.120391845703125
1638746356248962000,7.565962158203125,-0.9978790283203125,-0.018798828125,-0.12066650390625
1638746356258925800,7.57592578125,-0.9972991943359375,-0.018768310546875,-0.1197509765625
1638746356268888800,7.585888916015625,-0.996795654296875,-0.0183563232421875,-0.1202850341796875
1638746356278852000,7.59585205078125,-0.9980316162109375,-0.018157958984375,-0.120025634765625
1638746356288814800,7.60581494140625,-0.9972991943359375,-0.0187530517578125,-0.1206207275390625
1638746356298779000,7.61577880859375,-0.9983062744140625,-0.0186767578125,-0.1203460693359375
1638746356308742000,7.625741943359375,-0.9974517822265625,-0.0193634033203125,-0.120208740234375
1638746356318705000,7.635704833984375,-0.9975738525390625,-0.01898193359375,-0.1199951171875
1638746356328668000,7.64566796875,-0.99761962890625,-0.0181732177734375,-0.121124267578125
1638746356338632000,7.6556318359375,-0.997314453125,-0.019195556640625,-0.12152099609375
1638746356348595000,7.665594970703125,-0.996978759765625,-0.019500732421875,-0.122100830078125
1638746356358558000,7.675557861328125,-0.997161865234375,-0.0190887451171875,-0.1214599609375
1638746356368521000,7.68552099609375,-0.9990692138671875,-0.0181121826171875,-0.1209869384765625
1638746356378485000,7.695485107421875,-0.99798583984375,-0.0177001953125,-0.12042236328125
1638746356388448000,7.705447998046875,-0.9978179931640625,-0.0178375244140625,-0.11944580078125
1638746356398410800,7.71541064453125,-0.997039794921875,-0.0183258056640625,-0.1196746826171875
1638746356408373800,7.725373779296875,-0.9954833984375,-0.0187835693359375,-0.12060546875
1638746356418337800,7.735337890625,-0.996063232421875,-0.0191497802734375,-0.1209716796875
1638746356428300800,7.74530078125,-0.9961700439453125,-0.018218994140625,-0.1208648681640625
1638746356438263800,7.755263916015625,-0.995635986328125,-0.0183868408203125,-0.1213531494140625
1638746356448226800,7.765226806640625,-0.9980926513671875,-0.01885986328125,-0.1212310791015625
1638746356458190800,7.77519091796875,-0.997711181640625,-0.01910400390625,-0.121612548828125
1638746356468153000,7.785153076171875,-0.9971160888671875,-0.0183868408203125,-0.120513916015625
1638746356478116000,7.7951162109375,-0.99853515625,-0.0181732177734375,-0.1204833984375
1638746356488079000,7.8050791015625,-0.999298095703125,-0.01800537109375,-0.1206817626953125
1638746356498043100,7.815043212890625,-0.9971466064453125,-0.01873779296875,-0.120361328125
1638746356508006100,7.825006103515625,-0.996124267578125,-0.0195465087890625,-0.1215972900390625
1638746356517969000,7.834968994140625,-0.9973907470703125,-0.0196075439453125,-0.12042236328125
1638746356527932000,7.844931884765625,-0.9971771240234375,-0.0185546875,-0.119598388671875
1638746356537896000,7.85489599609375,-0.996734619140625,-0.01861572265625,-0.11944580078125
1638746356547859000,7.86485888671875,-0.9967803955078125,-0.0177459716796875,-0.1199798583984375
1638746356557822000,7.874822021484375,-0.9969940185546875,-0.0172119140625,-0.12152099609375
1638746356567786000,7.884785888671875,-0.99859619140625,-0.0171966552734375,-0.1226806640625
1638746356577749000,7.8947490234375,-1.0013275146484375,-0.0171051025390625,-0.1223297119140625
1638746356587712000,7.9047119140625,-0.999359130859375,-0.017852783203125,-0.12091064453125
1638746356597675000,7.914675048828125,-0.9978179931640625,-0.018707275390625,-0.1202392578125
1638746356607639000,7.92463916015625,-0.99578857421875,-0.01885986328125,-0.1215667724609375
1638746356617602000,7.93460205078125,-0.99627685546875,-0.0185699462890625,-0.1209716796875
1638746356627564800,7.944564697265625,-0.99847412109375,-0.0195770263671875,-0.1191558837890625
1638746356637528000,7.954528076171875,-0.9979705810546875,-0.0191192626953125,-0.11907958984375
1638746356647491800,7.964491943359375,-0.9977569580078125,-0.0202484130859375,-0.120086669921875
1638746356657454000,7.9744541015625,-0.9952545166015625,-0.0195770263671875,-0.1211700439453125
1638746356667417000,7.9844169921875,-0.994873046875,-0.019134521484375,-0.12164306640625
1638746356677381000,7.994381103515625,-0.9967041015625,-0.01947021484375,-0.1217803955078125
1638746356687344000,8.00434423828125,-0.9987640380859375,-0.0187225341796875,-0.121337890625
1638746356697307100,8.01430712890625,-0.998779296875,-0.0184326171875,-0.121673583984375
1638746356707270000,8.024269775390625,-0.999420166015625,-0.0186004638671875,-0.1219635009765625
1638746356717234000,8.03423388671875,-0.999267578125,-0.0188140869140625,-0.1217498779296875
1638746356727197000,8.044197021484376,-0.99871826171875,-0.0182037353515625,-0.121795654296875
1638746356737160000,8.054159912109375,-0.9978790283203125,-0.0170440673828125,-0.1208343505859375
1638746356747123000,8.064123046875,-0.996978759765625,-0.0176544189453125,-0.1209259033203125
1638746356757087000,8.0740869140625,-0.9968414306640625,-0.017608642578125,-0.12109375
1638746356767050000,8.084050048828125,-0.9968109130859375,-0.0177154541015625,-0.1217803955078125
1638746356777013000,8.094012939453124,-0.9972991943359375,-0.0169525146484375,-0.121124267578125
1638746356786976000,8.10397607421875,-0.9986419677734375,-0.0182952880859375,-0.1207122802734375
1638746356796940000,8.11393994140625,-0.99871826171875,-0.0183563232421875,-0.120147705078125
1638746356806903000,8.123903076171874,-0.9977569580078125,-0.0185394287109375,-0.119384765625
1638746356816866000,8.133865966796876,-0.995513916015625,-0.0189971923828125,-0.11920166015625
1638746356826829000,8.1438291015625,-0.995819091796875,-0.0193328857421875,-0.12042236328125
1638746356836792800,8.153792724609374,-0.9973297119140625,-0.0189971923828125,-0.121246337890625
1638746356846756000,8.163756103515626,-0.997467041015625,-0.018524169921875,-0.121673583984375
1638746356856719000,8.173718994140625,-0.9984130859375,-0.018310546875,-0.1209259033203125
1638746356866682000,8.18368212890625,-0.99822998046875,-0.01776123046875,-0.120758056640625
1638746356876646100,8.193646240234376,-0.99627685546875,-0.018402099609375,-0.120941162109375
1638746356886609200,8.203609130859375,-0.9970703125,-0.0188446044921875,-0.1202392578125
1638746356896572200,8.213572265625,-0.9988250732421875,-0.01824951171875,-0.120849609375
1638746356906535000,8.223534912109375,-0.998809814453125,-0.0185546875,-0.1205291748046875
1638746356916499000,8.2334990234375,-0.9988250732421875,-0.0186309814453125,-0.1212921142578125
1638746356926462000,8.2434619140625,-0.9966888427734375,-0.019134521484375,-0.1222686767578125
1638746356936425000,8.253425048828126,-0.9969329833984375,-0.0185089111328125,-0.1218719482421875
1638746356946388000,8.263387939453125,-0.9974822998046875,-0.0182952880859375,-0.1218109130859375
1638746356956352000,8.27335205078125,-0.9986114501953125,-0.01885986328125,-0.12164306640625
1638746356966315000,8.28331494140625,-0.9980010986328125,-0.018402099609375,-0.1212615966796875
1638746356976278000,8.293278076171875,-0.9973907470703125,-0.018280029296875,-0.12158203125
1638746356986241000,8.303240966796874,-0.9974822998046875,-0.018402099609375,-0.1209869384765625
1638746356996205000,8.313205078125,-0.99700927734375,-0.0181884765625,-0.1208343505859375
1638746357006167800,8.323167724609375,-0.9974822998046875,-0.018341064453125,-0.120391845703125
1638746357016130800,8.333130859375,-0.9958953857421875,-0.018310546875,-0.1201171875
1638746357026094800,8.3430947265625,-0.99615478515625,-0.017669677734375,-0.1202545166015625
1638746357036057900,8.353057861328125,-0.99658203125,-0.018035888671875,-0.1204986572265625
1638746357046020900,8.363020751953124,-0.996612548828125,-0.0178985595703125,-0.120758056640625
1638746357055984000,8.372984130859376,-0.997344970703125,-0.01885986328125,-0.1208038330078125
1638746357065948000,8.382947998046875,-0.996429443359375,-0.018707275390625,-0.12030029296875
1638746357075911200,8.3929111328125,-0.99664306640625,-0.018524169921875,-0.1209716796875
1638746357085874200,8.402874267578126,-0.9984130859375,-0.01873779296875,-0.12176513671875
1638746357095837200,8.412837158203125,-0.9994354248046875,-0.0186309814453125,-0.1207733154296875
1638746357105801200,8.42280126953125,-0.99853515625,-0.018951416015625,-0.1206512451171875
1638746357115765000,8.432764892578126,-0.9983978271484375,-0.01898193359375,-0.121551513671875
1638746357125728000,8.44272802734375,-0.9986114501953125,-0.018096923828125,-0.121826171875
1638746357135692000,8.452692138671875,-0.99664306640625,-0.0179901123046875,-0.1218719482421875
1638746357145655000,8.462655029296876,-0.9967193603515625,-0.0182952880859375,-0.1220855712890625
1638746357155618000,8.4726181640625,-0.9973907470703125,-0.018096923828125,-0.122039794921875
1638746357165581000,8.4825810546875,-0.99725341796875,-0.01904296875,-0.12109375
1638746357175545000,8.492545166015624,-0.9969482421875,-0.017730712890625,-0.1198272705078125
1638746357185508000,8.502508056640625,-0.9962615966796875,-0.017852783203125,-0.1202545166015625
1638746357195471000,8.51247119140625,-0.99749755859375,-0.0173797607421875,-0.121917724609375
1638746357205434000,8.52243408203125,-0.997406005859375,-0.0181884765625,-0.1226043701171875
1638746357215398100,8.532398193359375,-0.9988861083984375,-0.017974853515625,-0.123504638671875
1638746357225361200,8.542361083984375,-0.998931884765625,-0.0172271728515625,-0.1218414306640625
1638746357235324000,8.552323974609376,-0.996063232421875,-0.018218994140625,-0.121368408203125
1638746357245287000,8.562286865234375,-0.996185302734375,-0.0181884765625,-0.1208648681640625
1638746357255251000,8.5722509765625,-0.9970245361328125,-0.018951416015625,-0.1211090087890625
1638746357265214000,8.5822138671875,-0.9994049072265625,-0.01947021484375,-0.11981201171875
1638746357275177000,8.592177001953125,-0.9977569580078125,-0.01953125,-0.118682861328125
1638746357285140000,8.602139892578125,-0.9959716796875,-0.018829345703125,-0.1191558837890625
1638746357295104000,8.61210400390625,-0.99505615234375,-0.0190277099609375,-0.1209564208984375
1638746357305067000,8.62206689453125,-0.99530029296875,-0.0191192626953125,-0.1214752197265625
1638746357315030000,8.632030029296875,-0.99664306640625,-0.019195556640625,-0.1213226318359375
1638746357324992800,8.64199267578125,-0.998321533203125,-0.0189666748046875,-0.12164306640625
1638746357334957000,8.65195703125,-0.999603271484375,-0.0182342529296875,-0.122467041015625
1638746357344919800,8.661919921875,-0.998931884765625,-0.0184783935546875,-0.1219329833984375
1638746357354883000,8.671883056640626,-0.99847412109375,-0.01824951171875,-0.1215667724609375
1638746357364846000,8.68184619140625,-0.997650146484375,-0.017852783203125,-0.121856689453125
1638746357374809900,8.691809814453125,-0.9969940185546875,-0.017364501953125,-0.1207427978515625
1638746357384773000,8.701773193359376,-0.9968719482421875,-0.01690673828125,-0.1213226318359375
1638746357394736000,8.711736083984375,-0.99627685546875,-0.0171356201171875,-0.12127685546875
1638746357404700200,8.7217001953125,-0.9965057373046875,-0.0178375244140625,-0.1219940185546875
1638746357414663200,8.7316630859375,-0.9964752197265625,-0.0180511474609375,-0.1217193603515625
1638746357424626200,8.741626220703125,-0.9975433349609375,-0.01824951171875,-0.12139892578125
1638746357434589000,8.7515888671875,-0.9991455078125,-0.0185546875,-0.1207427978515625
1638746357444553000,8.761552978515626,-0.9986572265625,-0.0191497802734375,-0.1206207275390625
1638746357454516000,8.771515869140625,-0.9962005615234375,-0.0190277099609375,-0.120574951171875
1638746357464479500,8.7814794921875,-0.9951934814453125,-0.0189971923828125,-0.1216278076171875
1638746357474442500,8.7914423828125,-0.9954681396484375,-0.01873779296875,-0.1220245361328125
1638746357484406500,8.801406494140625,-0.9958953857421875,-0.0190582275390625,-0.1209869384765625
1638746357494369300,8.811369384765625,-0.9971466064453125,-0.01898193359375,-0.1212310791015625
1638746357504332300,8.821332275390626,-0.9979400634765625,-0.0182952880859375,-0.1217498779296875
1638746357514295300,8.83129541015625,-0.9969940185546875,-0.0183868408203125,-0.1215362548828125
1638746357524259300,8.84125927734375,-0.996978759765625,-0.01898193359375,-0.1216888427734375
1638746357534222300,8.851222412109376,-0.998291015625,-0.01776123046875,-0.1209564208984375
1638746357544185300,8.861185302734375,-0.9978179931640625,-0.0177154541015625,-0.121063232421875
1638746357554148400,8.8711484375,-0.998138427734375,-0.017425537109375,-0.121124267578125
1638746357564112400,8.8811123046875,-0.996795654296875,-0.0183868408203125,-0.1202392578125
1638746357574075400,8.891075439453125,-0.9957275390625,-0.0184783935546875,-0.1210784912109375
1638746357584038400,8.901038330078125,-0.99609375,-0.018463134765625,-0.121368408203125
1638746357594001400,8.91100146484375,-0.997039794921875,-0.0198211669921875,-0.122161865234375
1638746357603965200,8.920965087890625,-0.9972076416015625,-0.019622802734375,-0.12176513671875
1638746357613928200,8.93092822265625,-0.9988250732421875,-0.0185089111328125,-0.1210479736328125
1638746357623891500,8.940891357421876,-0.9986724853515625,-0.0180816650390625,-0.1205291748046875
1638746357633854500,8.9508544921875,-0.9969940185546875,-0.0178680419921875,-0.121734619140625
1638746357643818500,8.960818603515625,-0.9959564208984375,-0.01776123046875,-0.1226654052734375
1638746357653781500,8.970781494140626,-0.995635986328125,-0.0174102783203125,-0.12188720703125
1638746357663744500,8.98074462890625,-0.9962615966796875,-0.01824951171875,-0.1208648681640625
1638746357673707500,8.99070751953125,-0.996673583984375,-0.0191192626953125,-0.1213531494140625
1638746357683671600,9.000671630859374,-0.9964752197265625,-0.0190887451171875,-0.1212921142578125
1638746357693634300,9.01063427734375,-0.9980926513671875,-0.01861572265625,-0.1221160888671875
1638746357703597300,9.020597412109375,-0.99713134765625,-0.018280029296875,-0.12054443359375
1638746357713560300,9.030560302734376,-0.9969482421875,-0.0182647705078125,-0.1209564208984375
1638746357723524400,9.0405244140625,-0.996734619140625,-0.018585205078125,-0.121337890625
1638746357733487400,9.0504873046875,-0.996734619140625,-0.0186920166015625,-0.1213226318359375
1638746357743450400,9.060450439453126,-0.9971466064453125,-0.0187530517578125,-0.1210784912109375
1638746357753414400,9.070414306640625,-0.9969635009765625,-0.0184173583984375,-0.1219940185546875
1638746357763377400,9.08037744140625,-0.997161865234375,-0.018707275390625,-0.122100830078125
1638746357773340400,9.09034033203125,-0.9976654052734375,-0.018646240234375,-0.1216583251953125
1638746357783303400,9.100303466796875,-0.9990081787109375,-0.019073486328125,-0.121368408203125
1638746357793267500,9.110267333984375,-0.9981536865234375,-0.019317626953125,-0.1209716796875
1638746357803230200,9.120230224609376,-0.9974212646484375,-0.018524169921875,-0.1208953857421875
1638746357813193200,9.130193115234375,-0.999114990234375,-0.01873779296875,-0.120880126953125
1638746357823156500,9.140156494140625,-0.998138427734375,-0.0180511474609375,-0.1217041015625
1638746357833120300,9.150120361328124,-0.9959259033203125,-0.017608642578125,-0.122314453125
1638746357843083300,9.160083251953125,-0.995880126953125,-0.017608642578125,-0.1226348876953125
1638746357853046500,9.170046630859375,-0.996490478515625,-0.0187225341796875,-0.1217498779296875
1638746357863009500,9.180009521484376,-0.99560546875,-0.0178070068359375,-0.1197662353515625
1638746357872973600,9.1899736328125,-0.99591064453125,-0.0182037353515625,-0.120819091796875
1638746357882936600,9.1999365234375,-0.996337890625,-0.018341064453125,-0.120941162109375
1638746357892899300,9.2098994140625,-0.9987030029296875,-0.0179443359375,-0.1219635009765625
1638746357902862300,9.2198623046875,-0.998291015625,-0.0174407958984375,-0.123291015625
1638746357912826400,9.229826416015625,-0.9988250732421875,-0.017120361328125,-0.1230010986328125
1638746357922789400,9.239789306640626,-0.9973602294921875,-0.018218994140625,-0.1222991943359375
1638746357932752400,9.24975244140625,-0.99615478515625,-0.018218994140625,-0.122283935546875
1638746357942715400,9.25971533203125,-0.9970855712890625,-0.0182342529296875,-0.1219940185546875
1638746357952679400,9.269679443359376,-0.998138427734375,-0.0186309814453125,-0.1213836669921875
1638746357962642400,9.279642333984375,-0.9981689453125,-0.0195159912109375,-0.118896484375
1638746357972605400,9.28960546875,-0.9967041015625,-0.0196685791015625,-0.1192169189453125
1638746357982568200,9.299568115234376,-0.9952239990234375,-0.0198211669921875,-0.119720458984375
1638746357992532500,9.309532470703125,-0.9950714111328125,-0.0201263427734375,-0.121612548828125
1638746358002495200,9.3194951171875,-0.99493408203125,-0.0193939208984375,-0.1225128173828125
1638746358012458200,9.329458251953126,-0.9972076416015625,-0.01898193359375,-0.1218414306640625
1638746358022421200,9.339421142578125,-0.9988555908203125,-0.0182952880859375,-0.1215057373046875
1638746358032385300,9.34938525390625,-1.0000762939453125,-0.0178680419921875,-0.1222076416015625
1638746358042348300,9.359348388671876,-0.9983978271484375,-0.018829345703125,-0.122406005859375
1638746358052311300,9.369311279296875,-0.998291015625,-0.018310546875,-0.121307373046875
1638746358062274600,9.379274658203125,-0.9972686767578125,-0.018096923828125,-0.1201934814453125
1638746358072238300,9.38923828125,-0.9962615966796875,-0.0173187255859375,-0.1210174560546875
1638746358082201600,9.39920166015625,-0.99615478515625,-0.0178375244140625,-0.12139892578125
1638746358092164400,9.409164306640625,-0.99615478515625,-0.0181732177734375,-0.1216583251953125
1638746358102128400,9.41912841796875,-0.996063232421875,-0.0172576904296875,-0.1205596923828125
1638746358112091400,9.42909130859375,-0.9964447021484375,-0.017303466796875,-0.1215667724609375
1638746358122054400,9.439054443359375,-0.9979095458984375,-0.018096923828125,-0.1204071044921875
1638746358132017400,9.449017333984376,-0.998443603515625,-0.018310546875,-0.1214752197265625
1638746358141981400,9.4589814453125,-0.9968414306640625,-0.01904296875,-0.1204681396484375
1638746358151944400,9.4689443359375,-0.996551513671875,-0.01983642578125,-0.12188720703125
1638746358161907500,9.478907470703126,-0.9972991943359375,-0.019775390625,-0.1221771240234375
1638746358171870500,9.488870361328125,-0.9984283447265625,-0.019073486328125,-0.1232757568359375
1638746358181834500,9.49883447265625,-0.9992828369140625,-0.0184326171875,-0.12274169921875
1638746358191797500,9.508797607421876,-0.9996490478515625,-0.0186309814453125,-0.1225738525390625
1638746358201760300,9.51876025390625,-0.9991912841796875,-0.0173187255859375,-0.1220550537109375
1638746358211723300,9.52872314453125,-0.9976654052734375,-0.017791748046875,-0.1204376220703125
1638746358221687300,9.538687255859376,-0.9956207275390625,-0.01837158203125,-0.1197052001953125
1638746358231650300,9.548650390625,-0.9959716796875,-0.018951416015625,-0.1207122802734375
1638746358241613300,9.55861328125,-0.9967498779296875,-0.0184173583984375,-0.1200408935546875
1638746358251576300,9.568576416015626,-0.9978790283203125,-0.0183258056640625,-0.1187744140625
1638746358261540400,9.578540283203125,-0.998626708984375,-0.0183868408203125,-0.1194610595703125
1638746358271503400,9.58850341796875,-0.9969482421875,-0.0185699462890625,-0.1215972900390625
1638746358281466400,9.59846630859375,-0.99639892578125,-0.0190582275390625,-0.1228790283203125
1638746358291429400,9.608429443359375,-0.9956817626953125,-0.018829345703125,-0.12213134765625
1638746358301393200,9.61839306640625,-0.9971466064453125,-0.0179595947265625,-0.121368408203125
1638746358311356400,9.6283564453125,-0.998016357421875,-0.0189361572265625,-0.12164306640625
1638746358321319400,9.6383193359375,-0.9980316162109375,-0.0184173583984375,-0.12115478515625
1638746358331282400,9.648282470703125,-0.998046875,-0.01873779296875,-0.120880126953125
1638746358341246500,9.65824658203125,-0.996429443359375,-0.0185546875,-0.1208343505859375
1638746358351209500,9.66820947265625,-0.9979705810546875,-0.018310546875,-0.1213836669921875
1638746358361172500,9.67817236328125,-0.9964447021484375,-0.01763916015625,-0.1214141845703125
1638746358371135500,9.688135498046876,-0.9964141845703125,-0.0185546875,-0.121734619140625
1638746358381099500,9.698099609375,-0.99639892578125,-0.0184783935546875,-0.1217803955078125
1638746358391062500,9.7080625,-0.997344970703125,-0.0187530517578125,-0.1217498779296875
1638746358401025300,9.718025390625,-0.9981689453125,-0.017974853515625,-0.1213226318359375
1638746358410988300,9.72798828125,-0.998626708984375,-0.0173797607421875,-0.12139892578125
1638746358420952300,9.737952392578125,-0.998931884765625,-0.01806640625,-0.1209564208984375
1638746358430915300,9.747915283203126,-0.9980316162109375,-0.01812744140625,-0.121185302734375
1638746358440878300,9.75787841796875,-0.99713134765625,-0.0185394287109375,-0.12078857421875
1638746358450841300,9.76784130859375,-0.9960174560546875,-0.018463134765625,-0.1212310791015625
1638746358460805000,9.77780517578125,-0.99591064453125,-0.0189361572265625,-0.12127685546875
1638746358470768000,9.78776806640625,-0.9966278076171875,-0.01898193359375,-0.1212310791015625
1638746358480731100,9.797731201171874,-0.9967041015625,-0.019287109375,-0.1212615966796875
1638746358490694400,9.8076943359375,-0.997314453125,-0.019256591796875,-0.121246337890625
1638746358500658200,9.817658203125,-0.9972686767578125,-0.018798828125,-0.1212921142578125
1638746358510621200,9.82762109375,-0.997955322265625,-0.01910400390625,-0.1206512451171875
1638746358520584400,9.83758447265625,-0.996612548828125,-0.0186614990234375,-0.1208953857421875
1638746358530547200,9.847547119140625,-0.997344970703125,-0.0186614990234375,-0.1219329833984375
1638746358540511500,9.857511474609375,-0.9984893798828125,-0.0186614990234375,-0.120758056640625
1638746358550474200,9.86747412109375,-0.999359130859375,-0.0186920166015625,-0.12091064453125
1638746358560437200,9.877437255859375,-0.998138427734375,-0.0179901123046875,-0.1206817626953125
1638746358570401300,9.8874013671875,-0.99713134765625,-0.0180816650390625,-0.121429443359375
1638746358580364300,9.8973642578125,-0.997406005859375,-0.01873779296875,-0.1226348876953125
1638746358590327300,9.907327392578125,-0.996917724609375,-0.0184783935546875,-0.121917724609375
1638746358600290300,9.917290283203124,-0.99700927734375,-0.0183258056640625,-0.11956787109375
1638746358610254300,9.92725439453125,-0.99713134765625,-0.0180206298828125,-0.1204071044921875
1638746358620217300,9.93721728515625,-0.9958953857421875,-0.0176544189453125,-0.120635986328125
1638746358630180400,9.947180419921875,-0.997100830078125,-0.01715087890625,-0.123565673828125
1638746358640143000,9.95714306640625,-0.99896240234375,-0.017608642578125,-0.1234130859375
1638746358650107100,9.967107177734375,-0.9996185302734375,-0.0174102783203125,-0.1216888427734375
1638746358660070100,9.977070068359374,-0.9982147216796875,-0.017852783203125,-0.1209259033203125
1638746358670033200,9.987033203125,-0.9964599609375,-0.0188140869140625,-0.1215057373046875
1638746358679996200,9.99699609375,-0.9961700439453125,-0.01922607421875,-0.1212158203125
1638746358689960200,10.006960205078125,-0.996612548828125,-0.020599365234375,-0.119903564453125
1638746358699923200,10.016923095703126,-0.99676513671875,-0.0206451416015625,-0.1190643310546875
1638746358709886200,10.02688623046875,-0.9970855712890625,-0.0196685791015625,-0.1195831298828125
1638746358719849500,10.036849365234374,-0.99603271484375,-0.0196990966796875,-0.120391845703125
1638746358729813200,10.046813232421876,-0.9949493408203125,-0.01971435546875,-0.119964599609375
1638746358739776300,10.0567763671875,-0.9960174560546875,-0.0194091796875,-0.1204833984375
1638746358749739300,10.0667392578125,-0.9976806640625,-0.0185699462890625,-0.12054443359375
1638746358759702300,10.076702392578126,-0.9980010986328125,-0.01934814453125,-0.1217041015625
1638746358769666300,10.086666259765625,-0.998779296875,-0.018463134765625,-0.12213134765625
1638746358779629300,10.09662939453125,-0.999267578125,-0.0181121826171875,-0.12158203125
1638746358789592300,10.10659228515625,-0.999176025390625,-0.017669677734375,-0.1211090087890625
1638746358799555300,10.116555419921875,-0.9983978271484375,-0.018035888671875,-0.12152099609375
1638746358809519400,10.126519287109375,-0.99761962890625,-0.0178985595703125,-0.1206207275390625
1638746358819482400,10.136482421875,-0.9970855712890625,-0.0171051025390625,-0.120452880859375
1638746358829445400,10.1464453125,-0.9952850341796875,-0.016876220703125,-0.1205596923828125
1638746358839408000,10.156408203125,-0.99639892578125,-0.0181427001953125,-0.121429443359375
1638746358849372200,10.1663720703125,-0.997161865234375,-0.018035888671875,-0.120635986328125
1638746358859335200,10.176335205078125,-0.9986114501953125,-0.018707275390625,-0.1194305419921875
1638746358869298200,10.186298095703124,-0.9990997314453125,-0.0181427001953125,-0.1191864013671875
1638746358879261200,10.19626123046875,-0.9972686767578125,-0.0183258056640625,-0.1207733154296875
1638746358889225200,10.20622509765625,-0.995849609375,-0.01849365234375,-0.1197052001953125
1638746358899188200,10.216188232421874,-0.995574951171875,-0.018829345703125,-0.1210479736328125
1638746358909151200,10.226151123046876,-0.996673583984375,-0.0181732177734375,-0.1214599609375
1638746358919114200,10.2361142578125,-0.9972381591796875,-0.0181732177734375,-0.1207122802734375
1638746358929078300,10.246078369140625,-0.99774169921875,-0.017822265625,-0.1210479736328125
1638746358939041000,10.256041015625,-0.998992919921875,-0.018035888671875,-0.1202239990234375
1638746358949004300,10.26600439453125,-0.9980316162109375,-0.0181427001953125,-0.1202392578125
1638746358958967300,10.27596728515625,-0.9976959228515625,-0.01837158203125,-0.1210479736328125
1638746358968931000,10.28593115234375,-0.9980621337890625,-0.0188751220703125,-0.12152099609375
1638746358978894300,10.295894287109375,-0.998809814453125,-0.0196533203125,-0.119781494140625
1638746358988857300,10.305857421875,-0.9988555908203125,-0.019073486328125,-0.1199188232421875
1638746358998821400,10.3158212890625,-0.998016357421875,-0.01904296875,-0.12091064453125
1638746359008784400,10.325784423828125,-0.997955322265625,-0.0194854736328125,-0.121063232421875
1638746359018747400,10.335747314453124,-0.997161865234375,-0.01898193359375,-0.120635986328125
1638746359028710400,10.34571044921875,-0.996795654296875,-0.0187225341796875,-0.1212615966796875
1638746359038674400,10.35567431640625,-0.997802734375,-0.018402099609375,-0.12139892578125
1638746359048637200,10.36563720703125,-0.997222900390625,-0.0182952880859375,-0.1211090087890625
1638746359058600200,10.37560009765625,-0.9974212646484375,-0.0186004638671875,-0.1203155517578125
1638746359068563200,10.385563232421875,-0.9970703125,-0.0176239013671875,-0.1205596923828125
1638746359078527200,10.39552734375,-0.995697021484375,-0.018402099609375,-0.1202545166015625
1638746359088490200,10.405490234375,-0.9965972900390625,-0.018096923828125,-0.1199951171875
1638746359098453200,10.415453369140625,-0.996063232421875,-0.018402099609375,-0.1212921142578125
1638746359108416300,10.425416259765624,-0.996551513671875,-0.01837158203125,-0.1209259033203125
1638746359118380300,10.43538037109375,-0.9972076416015625,-0.0185546875,-0.120635986328125
1638746359128343300,10.44534326171875,-0.9977874755859375,-0.0185546875,-0.1205596923828125
1638746359138306000,10.45530615234375,-0.9976043701171875,-0.0183258056640625,-0.1208038330078125
1638746359148269000,10.46526904296875,-0.9974212646484375,-0.0182952880859375,-0.12066650390625
1638746359158233000,10.475233154296875,-0.997314453125,-0.0168609619140625,-0.121002197265625
1638746359168196000,10.485196044921874,-0.9970245361328125,-0.0184478759765625,-0.1214141845703125
1638746359178159400,10.495159423828126,-0.997100830078125,-0.0182647705078125,-0.120758056640625
1638746359188122400,10.505122314453125,-0.997833251953125,-0.0176849365234375,-0.11993408203125
1638746359198086100,10.515086181640624,-0.9984893798828125,-0.0189971923828125,-0.12139892578125
1638746359208049400,10.52504931640625,-0.9981231689453125,-0.018798828125,-0.1216278076171875
1638746359218012400,10.535012451171875,-0.9982452392578125,-0.019256591796875,-0.1212921142578125
1638746359227975400,10.544975341796874,-0.9991302490234375,-0.0191650390625,-0.1189117431640625
1638746359237939500,10.554939453125,-0.999481201171875,-0.01910400390625,-0.1192779541015625
1638746359247902200,10.564902099609375,-0.9981536865234375,-0.0192413330078125,-0.1204071044921875
1638746359257865200,10.574865234375,-0.996337890625,-0.01898193359375,-0.1200408935546875
1638746359267828200,10.584828125,-0.994384765625,-0.0186309814453125,-0.1204376220703125
1638746359277792300,10.594792236328125,-0.995147705078125,-0.01873779296875,-0.121307373046875
1638746359287755300,10.60475537109375,-0.9968109130859375,-0.018524169921875,-0.12060546875
1638746359297718300,10.61471826171875,-0.9972686767578125,-0.0185089111328125,-0.1195831298828125
1638746359307681300,10.624681396484375,-0.996917724609375,-0.018341064453125,-0.1191253662109375
1638746359317645300,10.634645263671874,-0.9957275390625,-0.016937255859375,-0.1202239990234375
1638746359327608300,10.6446083984375,-0.99664306640625,-0.0164794921875,-0.1221771240234375
1638746359337571000,10.654571044921875,-0.9979705810546875,-0.01715087890625,-0.122039794921875
1638746359347534000,10.6645341796875,-1.000030517578125,-0.0175323486328125,-0.12188720703125
1638746359357498000,10.674498046875,-0.9992828369140625,-0.017852783203125,-0.121307373046875
1638746359367461000,10.684461181640625,-0.998382568359375,-0.018096923828125,-0.120819091796875
1638746359377424100,10.694424072265624,-0.997711181640625,-0.0184783935546875,-0.1213531494140625
1638746359387387400,10.704387451171876,-0.9964447021484375,-0.018829345703125,-0.121246337890625
1638746359397351200,10.71435107421875,-0.9958648681640625,-0.019683837890625,-0.1193389892578125
1638746359407314200,10.724314208984374,-0.9962158203125,-0.019775390625,-0.118194580078125
1638746359417277400,10.73427734375,-0.9968109130859375,-0.018798828125,-0.1191558837890625
1638746359427240400,10.744240478515625,-0.997406005859375,-0.0193634033203125,-0.1197357177734375
1638746359437204500,10.75420458984375,-0.9970855712890625,-0.0190277099609375,-0.121246337890625
1638746359447167200,10.764167236328126,-0.997161865234375,-0.019287109375,-0.1215972900390625
1638746359457130200,10.774130126953125,-0.9974365234375,-0.018890380859375,-0.1211090087890625
1638746359467093800,10.78409375,-0.997650146484375,-0.0182037353515625,-0.1213836669921875
1638746359477057800,10.794057861328126,-0.9979705810546875,-0.018310546875,-0.1210174560546875
1638746359487020800,10.804020751953125,-0.9986572265625,-0.0186920166015625,-0.1212158203125
1638746359496983800,10.81398388671875,-0.99920654296875,-0.018096923828125,-0.1202850341796875
1638746359506946800,10.82394677734375,-0.9990081787109375,-0.0175323486328125,-0.11981201171875
1638746359516910800,10.833910888671875,-0.99725341796875,-0.0174407958984375,-0.1216278076171875
1638746359526873900,10.843873779296874,-0.9957733154296875,-0.0173492431640625,-0.12109375
1638746359536836900,10.8538369140625,-0.9965057373046875,-0.017303466796875,-0.120819091796875
1638746359546801000,10.86380078125,-0.9978179931640625,-0.0177154541015625,-0.1213531494140625
1638746359556763600,10.873763671875,-0.998565673828125,-0.0176544189453125,-0.1206512451171875
1638746359566726700,10.8837265625,-0.9991455078125,-0.0181121826171875,-0.120086669921875
1638746359576689700,10.893689697265625,-0.9969635009765625,-0.018035888671875,-0.1198883056640625
1638746359586653700,10.90365380859375,-0.9958038330078125,-0.01788330078125,-0.120025634765625
1638746359596616700,10.91361669921875,-0.99566650390625,-0.0194091796875,-0.1218719482421875
1638746359606579700,10.923579833984375,-0.9975433349609375,-0.018463134765625,-0.121002197265625
1638746359616542700,10.933542724609374,-0.9993896484375,-0.0185394287109375,-0.1204681396484375
1638746359626506800,10.9435068359375,-0.99920654296875,-0.0186614990234375,-0.1209869384765625
1638746359636469800,10.9534697265625,-0.997100830078125,-0.0182952880859375,-0.1208343505859375
1638746359646432500,10.9634326171875,-0.9969482421875,-0.0186614990234375,-0.121002197265625
1638746359656395800,10.973395751953126,-0.99664306640625,-0.01898193359375,-0.1203460693359375
1638746359666359600,10.983359619140625,-0.9969482421875,-0.018798828125,-0.120513916015625
1638746359676322800,10.99332275390625,-0.998443603515625,-0.0189666748046875,-0.121307373046875
1638746359686285800,11.003285888671876,-0.9990386962890625,-0.01861572265625,-0.1209259033203125
1638746359696248800,11.013248779296875,-0.9978179931640625,-0.0183563232421875,-0.1204986572265625
1638746359706212900,11.023212890625,-0.9978485107421875,-0.0181884765625,-0.121429443359375
1638746359716176000,11.03317578125,-0.9972991943359375,-0.01837158203125,-0.12176513671875
1638746359726139000,11.043138916015625,-0.997161865234375,-0.0188140869140625,-0.121246337890625
1638746359736102000,11.053101806640624,-0.997467041015625,-0.0189666748046875,-0.1219329833984375
1638746359746066000,11.06306591796875,-0.998321533203125,-0.01861572265625,-0.1212310791015625
1638746359756028700,11.073028564453125,-0.9978485107421875,-0.0177459716796875,-0.121063232421875
1638746359765991700,11.08299169921875,-0.99725341796875,-0.0181121826171875,-0.1204376220703125
1638746359775954700,11.09295458984375,-0.9958648681640625,-0.0181884765625,-0.12017822265625
1638746359785918700,11.102918701171875,-0.9967193603515625,-0.0184173583984375,-0.1218414306640625
1638746359795881700,11.1128818359375,-0.9965057373046875,-0.0191802978515625,-0.121429443359375
1638746359805844700,11.1228447265625,-0.9977874755859375,-0.0188446044921875,-0.1208343505859375
1638746359815807700,11.132807861328125,-0.998199462890625,-0.0194549560546875,-0.1209716796875
1638746359825771800,11.142771728515624,-0.9969329833984375,-0.0184783935546875,-0.1210174560546875
1638746359835734800,11.15273486328125,-0.9977569580078125,-0.01837158203125,-0.1197509765625
1638746359845697500,11.162697509765625,-0.9973297119140625,-0.0179290771484375,-0.120147705078125
1638746359855660800,11.172660888671874,-0.9959869384765625,-0.01824951171875,-0.1196746826171875
1638746359865624600,11.18262451171875,-0.9967498779296875,-0.018890380859375,-0.1206512451171875
1638746359875587600,11.192587646484375,-0.9977569580078125,-0.0188140869140625,-0.121063232421875
1638746359885550800,11.20255078125,-0.998291015625,-0.0185089111328125,-0.1204986572265625
1638746359895513900,11.212513916015626,-0.9985198974609375,-0.018768310546875,-0.1210479736328125
1638746359905478000,11.222477783203125,-0.9971923828125,-0.018402099609375,-0.12017822265625
1638746359915441000,11.23244091796875,-0.996826171875,-0.0184326171875,-0.1209564208984375
1638746359925404000,11.24240380859375,-0.998626708984375,-0.0183868408203125,-0.1207733154296875
1638746359935367000,11.252366943359375,-0.997650146484375,-0.01873779296875,-0.1209716796875
1638746359945331000,11.2623310546875,-0.997467041015625,-0.0186920166015625,-0.1217193603515625
1638746359955293700,11.272293701171876,-0.997283935546875,-0.017852783203125,-0.1211090087890625
1638746359965256700,11.282256591796875,-0.996826171875,-0.0178680419921875,-0.1217498779296875
1638746359975219700,11.2922197265625,-0.997100830078125,-0.0183258056640625,-0.1208953857421875
1638746359985183700,11.302183837890626,-0.9963226318359375,-0.0180206298828125,-0.119354248046875
1638746359995146800,11.312146728515625,-0.99700927734375,-0.0179290771484375,-0.1188507080078125
1638746360005109800,11.32210986328125,-0.9965667724609375,-0.0184478759765625,-0.1208038330078125
1638746360015072800,11.33207275390625,-0.9961700439453125,-0.018585205078125,-0.122161865234375
1638746360025036800,11.342036865234375,-0.99853515625,-0.017913818359375,-0.1225738525390625
1638746360034999800,11.351999755859374,-0.99981689453125,-0.01739501953125,-0.1214141845703125
1638746360044962600,11.361962646484375,-0.99859619140625,-0.0169219970703125,-0.121337890625
1638746360054925600,11.371925537109375,-0.99713134765625,-0.018157958984375,-0.1215667724609375
1638746360064889600,11.3818896484375,-0.996307373046875,-0.0191497802734375,-0.120941162109375
1638746360074852600,11.3918525390625,-0.997161865234375,-0.0189666748046875,-0.1207733154296875
1638746360084815600,11.401815673828125,-0.997894287109375,-0.0193328857421875,-0.12017822265625
1638746360094779000,11.41177880859375,-0.997802734375,-0.01885986328125,-0.119873046875
1638746360104742700,11.42174267578125,-0.9974365234375,-0.01953125,-0.119903564453125
1638746360114706000,11.431705810546875,-0.99530029296875,-0.0198974609375,-0.1203155517578125
1638746360124669000,11.4416689453125,-0.9954986572265625,-0.0193634033203125,-0.12060546875
1638746360134632000,11.4516318359375,-0.9962158203125,-0.0191497802734375,-0.1211700439453125
1638746360144596000,11.461595947265625,-0.9974212646484375,-0.01849365234375,-0.121734619140625
1638746360154558700,11.471558837890624,-0.9979400634765625,-0.017974853515625,-0.120513916015625
1638746360164521700,11.481521728515625,-0.9992523193359375,-0.01751708984375,-0.1217803955078125
1638746360174484700,11.491484619140625,-0.9996490478515625,-0.0184173583984375,-0.121002197265625
1638746360184448800,11.50144873046875,-0.9978179931640625,-0.0189056396484375,-0.120758056640625
1638746360194411800,11.511411865234376,-0.9971923828125,-0.01849365234375,-0.121795654296875
1638746360204374800,11.521374755859375,-0.9963836669921875,-0.0174407958984375,-0.1213531494140625
1638746360214337800,11.531337890625,-0.99627685546875,-0.017486572265625,-0.1214599609375
1638746360224301800,11.5413017578125,-0.9974822998046875,-0.0178375244140625,-0.1222686767578125
1638746360234264800,11.551264892578125,-0.9977264404296875,-0.0173492431640625,-0.1207733154296875
1638746360244227600,11.5612275390625,-0.9978179931640625,-0.01788330078125,-0.120849609375
1638746360254190600,11.571190673828125,-0.998382568359375,-0.0178070068359375,-0.1207275390625
1638746360264154600,11.581154541015625,-0.9983673095703125,-0.0190277099609375,-0.1202392578125
1638746360274117600,11.59111767578125,-0.997344970703125,-0.01806640625,-0.120086669921875
1638746360284080600,11.60108056640625,-0.995941162109375,-0.0181427001953125,-0.1197662353515625
1638746360294044700,11.611044677734375,-0.996551513671875,-0.0186614990234375,-0.1211090087890625
1638746360304007700,11.621007568359374,-0.9955596923828125,-0.0187835693359375,-0.1219329833984375
1638746360313970700,11.630970703125,-0.9963226318359375,-0.0186920166015625,-0.122039794921875
1638746360323934000,11.640933837890625,-0.9974365234375,-0.0187530517578125,-0.12091064453125
1638746360333897700,11.650897705078124,-0.9983367919921875,-0.0184326171875,-0.121490478515625
1638746360343861000,11.660861083984376,-0.9977569580078125,-0.018096923828125,-0.1220550537109375
1638746360353823700,11.67082373046875,-0.99810791015625,-0.018585205078125,-0.121337890625
1638746360363786800,11.680786865234374,-0.9989013671875,-0.017303466796875,-0.1209259033203125
1638746360373750800,11.690750732421876,-0.99871826171875,-0.0182342529296875,-0.1195831298828125
1638746360383713800,11.7007138671875,-0.9973297119140625,-0.0182647705078125,-0.1211395263671875
1638746360393676800,11.7106767578125,-0.9960174560546875,-0.018096923828125,-0.1215057373046875
1638746360403639800,11.720639892578125,-0.9956817626953125,-0.018768310546875,-0.12188720703125
1638746360413603800,11.730603759765625,-0.9977569580078125,-0.0185546875,-0.1219482421875
1638746360423566800,11.74056689453125,-0.9977874755859375,-0.0185699462890625,-0.121124267578125
1638746360433529900,11.75052978515625,-0.9981536865234375,-0.019195556640625,-0.122100830078125
1638746360443492600,11.76049267578125,-0.998779296875,-0.0187835693359375,-0.12078857421875
1638746360453456600,11.77045654296875,-0.997955322265625,-0.017578125,-0.12237548828125
1638746360463419100,11.780419189453125,-0.997894287109375,-0.0184326171875,-0.12158203125
1638746360473382100,11.790382080078125,-0.9976959228515625,-0.0182037353515625,-0.12127685546875
1638746360483345200,11.80034521484375,-0.9973602294921875,-0.0182342529296875,-0.120208740234375
1638746360493308200,11.81030810546875,-0.9976348876953125,-0.0181884765625,-0.1209869384765625
1638746360503272000,11.82027197265625,-0.9971466064453125,-0.018707275390625,-0.121337890625
1638746360513235200,11.830235107421874,-0.997955322265625,-0.0188140869140625,-0.1212158203125
1638746360523198200,11.8401982421875,-0.99859619140625,-0.019317626953125,-0.121337890625
1638746360533162200,11.850162353515625,-0.996795654296875,-0.0186920166015625,-0.120574951171875
1638746360543125200,11.860125244140624,-0.9973297119140625,-0.0184326171875,-0.1202850341796875
1638746360553088300,11.870088134765625,-0.996490478515625,-0.01806640625,-0.1205902099609375
1638746360563051300,11.88005126953125,-0.9972686767578125,-0.0188751220703125,-0.1212310791015625
1638746360573015300,11.890015380859374,-0.997100830078125,-0.0190582275390625,-0.1215057373046875
1638746360582978300,11.899978271484375,-0.9966278076171875,-0.0180511474609375,-0.1204986572265625
1638746360592941300,11.90994140625,-0.9972381591796875,-0.01837158203125,-0.12078857421875
1638746360602904000,11.919904052734376,-0.9981536865234375,-0.01824951171875,-0.1200714111328125
1638746360612868000,11.9298681640625,-0.997039794921875,-0.018280029296875,-0.1212921142578125
1638746360622831000,11.9398310546875,-0.9978790283203125,-0.0187225341796875,-0.121368408203125
1638746360632794000,11.949794189453126,-0.99676513671875,-0.0188446044921875,-0.121337890625
1638746360642757000,11.959757080078125,-0.996734619140625,-0.0182647705078125,-0.120697021484375
1638746360652721200,11.96972119140625,-0.9972381591796875,-0.01849365234375,-0.120574951171875
1638746360662683100,11.97968310546875,-0.997894287109375,-0.0170745849609375,-0.1208648681640625
1638746360672646400,11.989646484375,-0.9980926513671875,-0.018341064453125,-0.1211090087890625
1638746360682609200,11.999609130859374,-0.99822998046875,-0.0183868408203125,-0.1207275390625
1638746360692572200,12.009572265625,-0.9981536865234375,-0.0187225341796875,-0.12176513671875
1638746360702536200,12.0195361328125,-0.9983062744140625,-0.017669677734375,-0.12158203125
1638746360712499200,12.029499267578124,-0.9972381591796875,-0.01739501953125,-0.1215667724609375
1638746360722462200,12.039462158203126,-0.9953460693359375,-0.01812744140625,-0.121490478515625
1638746360732425200,12.04942529296875,-0.99676513671875,-0.0185394287109375,-0.121673583984375
1638746360742389200,12.05938916015625,-0.99603271484375,-0.01806640625,-0.1202850341796875
1638746360752352300,12.069352294921876,-0.99603271484375,-0.0179901123046875,-0.1194000244140625
1638746360762315300,12.079315185546875,-0.996337890625,-0.0176239013671875,-0.120147705078125
1638746360772278000,12.089278076171874,-0.997344970703125,-0.0182952880859375,-0.12127685546875
1638746360782242000,12.099241943359376,-0.9989471435546875,-0.0179290771484375,-0.12237548828125
1638746360792205000,12.109205078125,-0.9983978271484375,-0.0164642333984375,-0.1231842041015625
1638746360802168000,12.11916796875,-0.99737548828125,-0.0173492431640625,-0.121551513671875
1638746360812131000,12.129131103515626,-0.9966888427734375,-0.01806640625,-0.1212158203125
1638746360822095000,12.13909521484375,-0.99676513671875,-0.0189361572265625,-0.1211395263671875
1638746360832058000,12.14905810546875,-0.9978790283203125,-0.018585205078125,-0.1211395263671875
1638746360842021000,12.159021240234376,-0.999176025390625,-0.0187225341796875,-0.1194000244140625
1638746360851984400,12.168984375,-0.9978790283203125,-0.0186767578125,-0.1203460693359375
1638746360861948200,12.1789482421875,-0.9966278076171875,-0.0191650390625,-0.1199798583984375
1638746360871911200,12.1889111328125,-0.9954071044921875,-0.019256591796875,-0.1208648681640625
1638746360881874200,12.198874267578125,-0.9960174560546875,-0.0185699462890625,-0.1214447021484375
1638746360891837200,12.208837158203124,-0.9963531494140625,-0.0186004638671875,-0.122039794921875
1638746360901801200,12.21880126953125,-0.9981536865234375,-0.017425537109375,-0.1213531494140625
1638746360911764200,12.22876416015625,-1.000213623046875,-0.018280029296875,-0.121368408203125
1638746360921727200,12.238727294921874,-0.998748779296875,-0.01861572265625,-0.1215362548828125
1638746360931690200,12.248690185546875,-0.9996490478515625,-0.0184783935546875,-0.1220703125
1638746360941654300,12.258654296875,-0.9983978271484375,-0.01788330078125,-0.122161865234375
1638746360951617300,12.2686171875,-0.9968719482421875,-0.017303466796875,-0.121826171875
1638746360961580300,12.278580322265626,-0.9964141845703125,-0.017333984375,-0.120758056640625
1638746360971543000,12.28854296875,-0.99658203125,-0.0177001953125,-0.1209716796875
1638746360981507000,12.298507080078124,-0.9963531494140625,-0.017822265625,-0.1209259033203125
1638746360991470000,12.308469970703126,-0.9980621337890625,-0.0166473388671875,-0.12127685546875
1638746361001433000,12.31843310546875,-0.9964447021484375,-0.016845703125,-0.12158203125
1638746361011396000,12.32839599609375,-0.9929351806640625,-0.0175323486328125,-0.121978759765625
1638746361021360000,12.338360107421876,-0.9929351806640625,-0.0186309814453125,-0.1217041015625
1638746361031323100,12.3483232421875,-0.996978759765625,-0.0189666748046875,-0.121185302734375
1638746361041286100,12.3582861328125,-0.999603271484375,-0.0196685791015625,-0.1206817626953125
1638746361051249200,12.368249267578125,-0.999237060546875,-0.0218963623046875,-0.12078857421875
1638746361061213200,12.378213134765625,-0.9997406005859375,-0.0229034423828125,-0.120635986328125
1638746361071176200,12.38817626953125,-1.001953125,-0.020843505859375,-0.1203765869140625
1638746361081139200,12.39813916015625,-1.0023193359375,-0.0194091796875,-0.120086669921875
1638746361091102200,12.408102294921875,-0.9988861083984375,-0.017852783203125,-0.1208648681640625
1638746361101066200,12.418066162109374,-0.9960479736328125,-0.01715087890625,-0.1217498779296875
1638746361111029200,12.428029296875,-0.995208740234375,-0.016265869140625,-0.1219024658203125
1638746361120993000,12.437992919921875,-0.994873046875,-0.015655517578125,-0.1206207275390625
1638746361130956300,12.447956298828124,-0.99761962890625,-0.0151824951171875,-0.120758056640625
1638746361140919300,12.457919189453126,-0.9984283447265625,-0.0151214599609375,-0.1199951171875
1638746361150882300,12.46788232421875,-0.997528076171875,-0.0162353515625,-0.120941162109375
1638746361160846300,12.477846435546875,-0.9961090087890625,-0.0179901123046875,-0.1217041015625
1638746361170809300,12.487809326171876,-0.9958648681640625,-0.0186920166015625,-0.1225128173828125
1638746361180772000,12.497772216796875,-0.996795654296875,-0.018524169921875,-0.1226654052734375
1638746361190735000,12.507735107421874,-0.999114990234375,-0.01898193359375,-0.1227264404296875
1638746361200699100,12.51769921875,-1.00030517578125,-0.0183258056640625,-0.121551513671875
1638746361210662100,12.527662109375,-1.0009613037109375,-0.017822265625,-0.1217498779296875
1638746361220625200,12.537625244140624,-0.9991455078125,-0.0182037353515625,-0.12213134765625
1638746361230588200,12.547588134765626,-0.9962158203125,-0.0176849365234375,-0.1229248046875
1638746361240552200,12.55755224609375,-0.9944000244140625,-0.018646240234375,-0.1221160888671875
1638746361250515200,12.56751513671875,-0.99359130859375,-0.0196990966796875,-0.121978759765625
1638746361260478200,12.577478271484376,-0.9927215576171875,-0.0193023681640625,-0.12158203125
1638746361270441000,12.58744091796875,-0.9943084716796875,-0.020782470703125,-0.120391845703125
1638746361280405200,12.5974052734375,-0.99530029296875,-0.020751953125,-0.12060546875
1638746361290368000,12.607367919921876,-0.99462890625,-0.0207977294921875,-0.119781494140625
1638746361300331000,12.6173310546875,-0.9965972900390625,-0.020904541015625,-0.11993408203125
1638746361310294300,12.627294189453124,-0.9975433349609375,-0.0198211669921875,-0.1205902099609375
1638746361320258000,12.637258056640626,-0.9969329833984375,-0.0194244384765625,-0.1215972900390625
1638746361330221000,12.647220947265625,-0.9975128173828125,-0.018646240234375,-0.1213226318359375
1638746361340184300,12.657184326171874,-0.9982757568359375,-0.018402099609375,-0.119873046875
1638746361350147300,12.667147216796875,-0.9989776611328125,-0.017181396484375,-0.119964599609375
1638746361360111400,12.677111328125,-0.9996185302734375,-0.0176544189453125,-0.120941162109375
1638746361370074400,12.687074462890624,-0.998687744140625,-0.0175323486328125,-0.1217498779296875
1638746361380037000,12.697037109375,-0.998870849609375,-0.01776123046875,-0.120513916015625
1638746361390000000,12.707000244140625,-0.998687744140625,-0.018096923828125,-0.12042236328125
1638746361399964200,12.716964111328124,-0.99871826171875,-0.0171051025390625,-0.121246337890625
1638746361409927200,12.72692724609375,-0.9999237060546875,-0.0177154541015625,-0.1208343505859375
1638746361419890200,12.73689013671875,-0.9990081787109375,-0.01788330078125,-0.12103271484375
1638746361429853200,12.746853271484374,-0.9989776611328125,-0.0175933837890625,-0.121063232421875
1638746361439817200,12.756817138671876,-0.9979705810546875,-0.0175323486328125,-0.1208038330078125
