time,seconds_elapsed,z,y,x
1638753845829431600,0.054431640625,0.1111743098527193,0.009769370070658624,0.004712680336134508
1638753845839451600,0.06445166015625,0.12626315791308879,0.012948694226518273,-0.003027394130313769
1638753845849471500,0.074471435546875,0.16004793861508368,0.013535006214492022,-0.022964586404152214
1638753845859492600,0.08449267578125,0.16809329790472982,0.024721038150042295,-0.025564603701559826
1638753845869512400,0.094512451171875,0.13575988505482672,0.023461758803948757,-0.01037091616038233
1638753845879533600,0.104533447265625,0.20880057134628294,0.03301839943937957,-0.012013514001946895
1638753845889553700,0.1145537109375,0.378993471878767,-0.011220336063951253,-0.09114607829456217
1638753845899573500,0.124573486328125,0.1149170035123825,0.00405782402344048,-0.01672715331930667
1638753845909594600,0.1345947265625,-0.050288756257295605,0.005505502081103623,0.08009482432035729
1638753845919614500,0.144614501953125,-0.03580547287464142,0.0012830255478620527,0.054774240241432556
1638753845929635600,0.154635498046875,0.0686146865427494,0.009738938399776817,0.002333192187920213
1638753845939655400,0.164655517578125,0.0962906289756298,0.0045572614455595606,-0.00588397087152116
1638753845949676500,0.174676513671875,0.07772153758406639,0.02177059084661305,-0.009233116902643813
1638753845959696600,0.184696533203125,0.1273959613353014,0.030532062516361473,-0.017619946573721245
1638753845969716500,0.194716552734375,0.07573650124669075,-0.01583495371993631,-0.04682007549973204
1638753845979737600,0.204737548828125,0.012661913174390792,-0.058264119050651784,0.13019825060600415
1638753845989757400,0.21475732421875,0.11658522898554802,-0.0643609015557915,0.07705718279066495
1638753845999778600,0.224778564453125,0.17163491603434086,-0.034686588379926976,0.0013033376835286617
1638753846009798400,0.23479833984375,0.16568506771922112,-0.03184113582093268,-0.020538994091888887
1638753846019819500,0.244819580078125,0.13998831640481949,-0.03474051052425056,-0.013044775012135504
1638753846029839600,0.254839599609375,0.10786123978197575,0.0008313362576067448,-0.016842477661510927
1638753846039859500,0.264859375,0.09128361446857453,0.02165193290300667,-0.02241121770455502
1638753846049880600,0.274880615234375,0.08574526956379414,0.028343758691847323,-0.03407348884972743
1638753846059900400,0.284900390625,0.09364683646857738,0.0204261539677158,-0.05194728232035413
1638753846069921500,0.294921630859375,0.10604337670505046,0.02180387206170708,-0.04932803059951402
1638753846079941600,0.304941650390625,0.10618307743668555,0.0033115357007831333,-0.03921262357016094
1638753846089961500,0.31496142578125,0.10437982740700244,0.0003653627136722207,-0.0354417221627431
1638753846099982600,0.324982666015625,0.09673778822124003,0.0029619550781324502,-0.025385055016726252
1638753846110002400,0.33500244140625,0.10661503911316395,-0.0061153776077553625,-0.0164923444830114
1638753846120023600,0.3450234375,0.09345978946387767,-0.007124554650299251,-0.01505480422687251
1638753846130043400,0.35504345703125,0.09587328034639359,-0.006038439914025366,-0.0125215548556298
1638753846140064500,0.365064453125,0.10666121634244918,0.005802000809647143,-0.01945917209908366
1638753846150084600,0.375084716796875,0.10922200674116611,0.006779796333238482,-0.0231764755891636
1638753846160104400,0.3851044921875,0.10339081636965274,-0.0006357771528884769,-0.02460421140391845
1638753846170125600,0.39512548828125,0.10489362214803695,0.002057517051696777,-0.022720201455336063
1638753846180145400,0.4051455078125,0.1016062710404396,0.0009049129504710436,-0.01655471936184913
1638753846190166500,0.41516650390625,0.09681845224201678,-0.002132774244993925,-0.010972608380578458
1638753846200186400,0.425186279296875,0.10235621262490749,-0.008922872776538133,-0.009862820507772267
1638753846210207500,0.43520751953125,0.09951017554402351,-0.015597016778215764,-0.011540763657353818
1638753846220227600,0.4452275390625,0.10326514416337013,-0.020395064709708092,0.0003673720076680183
1638753846230247400,0.455247314453125,0.11107143400013446,-0.030982509697601197,0.012950520857423544
1638753846240268500,0.4652685546875,0.10900807172954081,-0.061497036557272074,-0.036802521087974306
1638753846250288400,0.475288330078125,0.0327519305229187,-0.04063713081479072,-0.04018854679707438
1638753846260309500,0.4853095703125,0.09266659325957298,-0.035340924102813004,-0.02981416003797203
1638753846270329600,0.49532958984375,0.23666414530575275,-0.03482223399095237,-0.020100465677306056
1638753846280350500,0.5053505859375,0.3698538876116276,-0.0485132344847545,0.03044273569851648
1638753846290370600,0.51537060546875,0.24966975735127925,-0.0399294940020889,0.09297147622397169
1638753846300390400,0.525390380859375,0.02247720474600792,0.09927822995167225,0.08649435263173655
1638753846310411500,0.53541162109375,-0.045379356905817986,0.14241978133544325,0.008547226130869239
1638753846320431400,0.545431396484375,-0.11821370697021484,0.09497275131009518,-0.005839739004150033
1638753846330452500,0.555452392578125,-0.10379589003920554,0.04826594519279897,-0.016475370515324175
1638753846340472600,0.56547265625,-0.005101122531294822,0.0056736617222428315,-0.06593355769999325
1638753846350493700,0.57549365234375,0.09961422044038772,-0.0018574279023334383,-0.08492065530791879
1638753846360513500,0.585513427734375,0.13207389001846312,0.04650441541299224,-0.053626577176805586
1638753846370533400,0.595533447265625,0.14568389769792556,0.09169625039007515,0.015888547070696948
1638753846380554800,0.6055546875,0.14255202941298484,-0.012060586280375719,0.06778720447635278
1638753846390574300,0.61557421875,0.15649346100389958,-0.03559365675486624,0.08357428220026195
1638753846400595700,0.625595703125,0.11762158629596232,0.015177330061420797,0.03176214773401152
1638753846410615600,0.635615478515625,0.0785837073713541,-0.009517989125475287,0.012387790674436837
1638753846420635400,0.645635498046875,0.08471534199416637,-0.042071584064699706,-0.011159038897347635
1638753846430656800,0.65565673828125,0.14172376189529895,-0.007960749746114016,-0.02754517392637208
1638753846440676400,0.66567626953125,0.16627543482780455,0.004251739160344005,-0.030627065589744595
1638753846450697700,0.67569775390625,0.1426455529153347,-0.01895505850184709,-0.017125199026451446
1638753846460717600,0.685717529296875,0.10864040746092796,-0.006060176821798086,-0.03242056597697083
1638753846470738700,0.69573876953125,0.06325578985810279,0.006905139745958149,-0.04891294242602307
1638753846480758800,0.7057587890625,0.03017301994562149,0.020665369551070033,-0.07097093081269412
1638753846490779600,0.715779541015625,0.042726796570420264,0.043019276710972186,-0.06829139113882556
1638753846500799700,0.7257998046875,0.06305062267482281,0.04460910318568349,-0.05586978952633217
1638753846510819600,0.735819580078125,0.055712534871697424,0.03937492885924875,-0.03063532196143642
1638753846520840200,0.745840087890625,0.07726911764144898,0.021435257945023475,-0.014402770058927126
1638753846530860300,0.7558603515625,0.08714052331447601,0.007399024210125208,-0.006804675046168268
1638753846540881200,0.765881103515625,0.1119850417137146,-0.01477539819702506,-0.0010110584723763167
1638753846550901200,0.7759013671875,0.1256125850498676,-0.020829072212800382,0.00545890472671017
1638753846560922400,0.78592236328125,0.12307985170185565,-0.02015058842934668,0.010295129244122653
1638753846570942200,0.795942138671875,0.11606383545994758,-0.027459267474897204,0.017641162891685963
1638753846580962300,0.80596240234375,0.1081464864641428,-0.034269970403052866,0.020856028718384913
1638753846590983200,0.815983154296875,0.11189970151782035,-0.013167195815406738,0.0099073492026655
1638753846601003300,0.826003173828125,0.11953180383145809,-0.008305800324119627,0.01016677189040929
1638753846611024400,0.8360244140625,0.11263619909882545,-0.010143025688640773,0.01086868678180035
1638753846621044200,0.846044189453125,0.10976795018613338,-0.00362549702078104,0.003965195570234209
1638753846631065300,0.8560654296875,0.112437461656332,0.006618212563358247,-0.0020502470606938005
1638753846641085400,0.86608544921875,0.08757306951284408,0.0017574381265789269,-0.0012985336442478
1638753846651105300,0.876105224609375,0.07273088968992233,0.002085537569783628,-0.017059399214666336
1638753846661126400,0.88612646484375,0.07569733828008174,0.017199483538791537,-0.020563352215010672
1638753846671146200,0.896146240234375,0.081368369653821,0.013066256191581487,-0.025615612369589508
1638753846681167400,0.90616748046875,0.09423252740204334,0.00972187766712159,-0.03000619831162039
1638753846691187500,0.9161875,0.08689443959891796,0.016742314355820416,-0.02722125746794045
1638753846701207000,0.92620703125,0.09182371269464493,0.013984357417188583,-0.020019020771817303
1638753846711228400,0.936228515625,0.0912234087139368,0.009362250574491918,-0.026422837099246678
1638753846721248500,0.94624853515625,0.09975625925958156,0.01734210687987506,-0.01870676456289366
1638753846731269400,0.956269287109375,0.10245499682426452,0.013610117277316749,-0.010571612664521671
1638753846741289500,0.96628955078125,0.0910930603325367,0.012429565723240376,0.005434555736742913
1638753846751310300,0.976310302734375,0.0961859995573759,0.006622340749204159,0.015423724304232745
1638753846761330400,0.986330322265625,0.09379062885344028,0.011761676399037241,0.013708463085256516
1638753846771350300,0.996350341796875,0.09483633851408958,0.007281571842916309,0.008224821209511719
1638753846781371400,1.006371337890625,0.10650690256357193,0.010261500969156623,0.007883483258821069
1638753846791391500,1.0163916015625,0.1042600004196167,0.018102277597412467,0.021759247468691317
1638753846801412400,1.026412353515625,0.10186404519379139,0.007399170340597629,0.01217104265121743
1638753846811432400,1.036432373046875,0.09796586871147155,0.00941606312096119,-0.0033774040112271903
1638753846821453300,1.046453369140625,0.0972100819081068,0.020047420315816997,-0.0104557814322412
1638753846831473400,1.056473388671875,0.10184417144954204,0.005155556132271886,0.0015992153575643895
1638753846841493200,1.0664931640625,0.10871639530658721,-0.0035706980936229225,0.010555478947050868
1638753846851514400,1.076514404296875,0.08476970252990722,0.0004970262693241238,0.005353343726694584
1638753846861534500,1.086534423828125,0.0766840112298727,-0.01008771530482918,-0.016359913742379283
1638753846871555300,1.096555419921875,0.09418401208519935,-0.0055438247974961994,-0.014902531708031892
1638753846881575400,1.106575439453125,0.10644903489649295,-0.004171476998366415,-0.008715463403821922
1638753846891596300,1.11659619140625,0.09836860429346561,-0.008023805044963955,-0.01142879118286073
1638753846901616400,1.126616455078125,0.09089140028059482,-0.0037331221137195825,-0.014823310725670308
1638753846911636500,1.136636474609375,0.08849252244532108,-0.00028089930061250926,-0.005063242772896773
1638753846921657300,1.1466572265625,0.0908838014960289,0.007884213911183179,-0.005078033916652202
1638753846931677400,1.156677490234375,0.0932797567218542,0.005593399560265243,0.00039889965709298845
1638753846941698300,1.1666982421875,0.10270283410549164,0.007237842299044132,-0.010085322418343276
1638753846951718400,1.176718505859375,0.0955155529499054,0.005732808030955493,-0.008900587879493832
1638753846961739300,1.1867392578125,0.09685410807728767,0.0034110505525022745,-0.010188472265563905
1638753846971759400,1.19675927734375,0.09864566766917705,0.00558291469886899,-0.006128693747054785
1638753846981780200,1.2067802734375,0.10478840820789337,0.011065949219837784,-0.0158065313430503
1638753846991800300,1.21680029296875,0.09642097735702991,0.013873152127675712,-0.0005445597720565274
1638753847001820400,1.2268203125,0.0835591576963663,-0.00423274219892919,-0.00364005983567331
1638753847011841300,1.23684130859375,0.09119535166323184,0.008788871133327483,-0.017046740662492812
1638753847021861400,1.246861328125,0.09524375027120113,0.01381879159193486,-0.012462942836456931
1638753847031882200,1.25688232421875,0.0995890859991312,0.01651617744974792,0.0025915691294707355
1638753847041902300,1.26690234375,0.10033961210548877,0.014245419506169855,0.0037104536241851743
1638753847051923200,1.276923095703125,0.09584697686135768,0.011662198079936206,-0.006550796183221973
1638753847061943300,1.286943359375,0.10303367349505424,0.003184767515957355,-0.0006049801558256149
1638753847071963400,1.29696337890625,0.10049392588436602,0.005908566456660628,0.0074114635665901004
1638753847081984300,1.306984375,0.10108955368995666,-0.006119067402184009,0.0010461480520665646
1638753847092004400,1.31700439453125,0.09196341342628002,-0.00478442126493901,0.002912617777381092
1638753847102025200,1.327025146484375,0.07984569013118743,0.006983721407502889,0.0114157490381971
1638753847112045300,1.33704541015625,0.08852408662736415,0.005390606997162103,0.00777985848756507
1638753847122066200,1.347066162109375,0.08956687367856501,0.010159940290823578,0.00356136400969699
1638753847132086300,1.357086181640625,0.10138707533180713,0.013366408181935548,-0.006538078265544027
1638753847142106400,1.3671064453125,0.10946809045672416,0.01036558239813894,-0.00932918855510652
1638753847152127200,1.377127197265625,0.09270400266051292,0.011223039477691054,-0.00962015259200707
1638753847162147300,1.387147216796875,0.09958616338968276,0.022774361061677337,-0.0212845426290296
1638753847172168200,1.397168212890625,0.08970423632264136,0.016620222346112132,-0.01152801377363503
1638753847182188300,1.407188232421875,0.09254501270651817,0.004372589061036706,-0.011024393366742878
1638753847192209200,1.417209228515625,0.09074351624250411,0.002412687164917588,-0.0024229710969142612
1638753847202229200,1.427229248046875,0.08849544505476951,-0.002117357480153441,-0.0024342779422178865
1638753847212249300,1.437249267578125,0.09657879826724529,0.0003714636608958244,0.009184373256936669
1638753847222270200,1.447270263671875,0.09613046997785568,-0.002471358549594879,0.020190573379863054
1638753847232290300,1.457290283203125,0.10376140324771403,-0.005429843029007315,0.010952003983967005
1638753847242311200,1.467311279296875,0.10152443797588348,-0.006751593152061104,0.0005774893607012928
1638753847252331300,1.477331298828125,0.10167816723287106,-0.0009861614931374787,0.0027477597716031596
1638753847262352100,1.48735205078125,0.10661620815694331,0.006683496351912618,0.005905351586267352
1638753847272372200,1.497372314453125,0.10376958655416965,0.0024546996757388116,0.00035327041707932944
1638753847282392300,1.507392333984375,0.09419161086976528,0.006526917550712824,-0.0017006847043521702
1638753847292413200,1.5174130859375,0.09478548510968685,0.003052921297214925,-0.0022598392573418094
1638753847302433300,1.527433349609375,0.10046703787744045,0.004801481997594237,-0.007274393183458596
1638753847312454100,1.5374541015625,0.0959726490676403,0.013315079853497445,-0.0023942975582787766
1638753847322474200,1.54747412109375,0.09417173712551594,0.013905118168517947,-0.005444419543631374
1638753847332495000,1.5574951171875,0.08489186760485172,0.010690466970950364,-0.008935184268839656
1638753847342515200,1.56751513671875,0.09297112916409969,-0.00019961422532796858,-0.011642822092608548
1638753847352535300,1.577535400390625,0.09895429522693157,0.0019384937819093464,-0.008670669847447425
1638753847362556200,1.58755615234375,0.09625906479358673,0.011282916438765823,-0.006798030676250346
1638753847372576300,1.597576171875,0.09999591323435306,0.016189064387232065,0.007716437862534076
1638753847382597000,1.60759716796875,0.0973012673228979,0.008750000427663326,0.0035854755376465617
1638753847392617200,1.6176171875,0.09864742123484611,0.007879355072975158,0.006049308367911726
1638753847402638000,1.62763818359375,0.10163900426626205,0.0037177784141153095,-0.00425535588953644
1638753847412658200,1.637658203125,0.09520634087026118,0.01029328434690833,-0.00568991873729974
1638753847422678300,1.64767822265625,0.09759878896474837,0.0051311888759955765,-0.0016130292537854982
1638753847432699100,1.65769921875,0.09504676639437674,0.011775266532972454,-0.0005049903800711036
1638753847442719200,1.66771923828125,0.09445347667634486,0.012248437002673744,-0.0012260711962357163
1638753847452740000,1.677739990234375,0.10193886399567127,0.010182590514048934,0.008439911565184593
1638753847462760200,1.68776025390625,0.10059212556183338,0.003003492664918303,0.002465148004516959
1638753847472781000,1.697781005859375,0.09370762674510479,0.007525427068769931,0.006852770237904041
1638753847482801200,1.70780126953125,0.0962514660090208,0.010249043346382677,0.0002062996944412589
1638753847492822300,1.717822265625,0.09999708227813243,0.006126045132242143,0.0021722066396614535
1638753847502842000,1.727842041015625,0.09415829312205314,0.002453055707924068,0.001024886068329215
1638753847512862200,1.7378623046875,0.09206278214752674,-0.004109261949732899,-0.00617017653491348
1638753847522882600,1.747882568359375,0.09326046749949454,-0.00485233540199697,0.008520593852270395
1638753847532902400,1.75790234375,0.09879588979482651,0.003994659126736223,-0.00418965654245112
1638753847542923500,1.767923583984375,0.0959469301044941,0.003538768585398793,-0.002849051021877676
1638753847552943400,1.777943359375,0.09744155257642269,0.012698409259878099,0.0023916215440025553
1638753847562964700,1.78796484375,0.09773790517449378,0.015300700712762773,-0.006340308937430382
1638753847572984600,1.797984619140625,0.09323884018957615,0.013761435381509363,-0.00024875516325701026
1638753847583004400,1.80800439453125,0.08859130664467811,0.022185528323054312,-0.0054630329125560815
1638753847593025500,1.818025634765625,0.09291676862835883,0.026581863585859535,-0.004939648359268903
1638753847603045400,1.82804541015625,0.0963432359457016,0.038637335299700495,-0.0010537651029415428
1638753847613066800,1.838066650390625,0.09093933107554912,0.04390800571162253,-0.008722514199116268
1638753847623086300,1.84808642578125,0.08897942917943,0.04009052978269756,-0.00639012116221711
1638753847633107700,1.858107666015625,0.09180793060362338,0.031231662153080104,-0.010611593048460781
1638753847643127600,1.86812744140625,0.09866671045720576,0.02187781408075243,-0.018674145501502787
1638753847653147400,1.8781474609375,0.09744272162020205,0.0022244711164385077,-0.01656275653783232
1638753847663168800,1.888168701171875,0.09906126273274421,-0.009810250070318579,-0.02200147699303925
1638753847673188400,1.898188232421875,0.10053075076341629,-0.012120499774068594,-0.0246147464976646
1638753847683209700,1.908209716796875,0.10006079516410828,-0.0106191553004086,-0.027802783682942388
1638753847693229600,1.9182294921875,0.09361293419897555,-0.00795044754780829,-0.004525240605790168
1638753847703250700,1.928250732421875,0.0879074160337448,0.0023163141183555123,0.006104728349577635
1638753847713270800,1.938270751953125,0.0744096365571022,0.02550141140539199,0.026501985016372052
1638753847723290400,1.948290283203125,0.07483166136145591,0.02187536639533937,0.03383187124673277
1638753847733311700,1.958311767578125,0.08303133442997931,0.02872022732142359,0.03070144143362995
1638753847743331600,1.96833154296875,0.1051268463820219,0.04338226480446756,0.0167648367148824
1638753847753352700,1.978352783203125,0.12586919015944004,0.03755648126043379,0.006806063285656273
1638753847763372500,1.98837255859375,0.12715396927297115,0.03289203311335295,0.004090223889122717
1638753847773393700,1.9983935546875,0.11586392897367477,0.035328795273602005,0.010209003596939145
1638753847783413800,2.008413818359375,0.1048784245789051,0.039602015613391994,-0.0024717604083940386
1638753847793434600,2.0184345703125,0.09779460379779338,0.04566606489270925,0.009858874985016882
1638753847803454700,2.028454833984375,0.08755962550938129,0.03792776225823909,0.009520432244311086
1638753847813474600,2.038474609375,0.0825485193490982,0.022626184762641787,0.01626505223289132
1638753847823495700,2.04849560546875,0.09384791199862956,0.008734254869259894,0.013961013074219226
1638753847833515500,2.058515625,0.10648293716609478,0.007688874002173543,0.008760138229187578
1638753847843536600,2.06853662109375,0.11597674169838428,0.017982742870971558,0.007813760757166891
1638753847853556700,2.078556640625,0.1386328101426363,0.0300347074534744,0.012386274570785461
1638753847863577600,2.08857763671875,0.13584230264127253,0.023870851061493156,0.014491484955418854
1638753847873597700,2.09859765625,0.12751169666945933,0.04291223613992333,0.02817470400156453
1638753847883617500,2.108617431640625,0.11663315978050232,0.08300046436768024,0.035187704019190275
1638753847893638700,2.118638671875,0.08418985681533812,0.11831961503010242,0.042756260126922276
1638753847903658800,2.12865869140625,0.0895896700322628,0.19246263654027132,0.019043775681627448
1638753847913679600,2.1386796875,0.0615910715162754,0.1696308096703142,0.06511634129928424
1638753847923699700,2.14869970703125,0.07455868963897228,0.09992273840028792,0.0630444851949811
1638753847933720600,2.158720458984375,0.13134908287525177,0.06574680295623839,0.01765654312390834
1638753847943740700,2.16874072265625,0.14983283407092093,-0.021843838745914397,-0.018155816149245947
1638753847953761500,2.178761474609375,0.1874754592448473,-0.10431545693390071,-0.037415848947037006
1638753847963781600,2.18878173828125,0.24818331818580627,-0.11217574198022484,-0.04840259545082226
1638753847973801700,2.1988017578125,0.2597048291534185,-0.043064029168151316,-0.06168771855747327
1638753847983822600,2.208822509765625,0.21876023982465265,-0.001695844132453203,-0.039355402174871414
1638753847993842700,2.2188427734375,0.14635551334917543,-0.01332611270416528,0.02611431913934648
1638753848003863600,2.228863525390625,0.09825812965631485,-0.04694291642811149,0.11216112893298268
1638753848013883600,2.238883544921875,0.08510112644135952,-0.04572736662589013,0.1713736164833419
1638753848023904500,2.248904541015625,0.09728080905675887,-0.13565675347391515,0.14055488251270726
1638753848033924600,2.258924560546875,0.1536643750578165,-0.16220044047385454,0.13583097752965986
1638753848043944700,2.26894482421875,0.19698972204327583,-0.13455204363502563,0.14991052068332208
1638753848053965600,2.278965576171875,0.21370646356642245,-0.07278481183424591,0.11967197948712854
1638753848063985700,2.288985595703125,0.17326982375979422,-0.01676912929750979,0.10091401445996016
1638753848074006500,2.299006591796875,0.11798165178000926,-0.008098039324954152,0.07689617440951987
1638753848084026600,2.309026611328125,0.09526888471245765,0.0030782749341800807,0.06796351089132949
1638753848094047500,2.319047607421875,0.11144669705331325,0.05973718727789819,0.10260452483016996
1638753848104067600,2.329067626953125,0.10642799210846424,0.0844981555795297,0.06993029005280696
1638753848114088400,2.33908837890625,0.10446984377801417,0.05466551003679633,0.012266593713872134
1638753848124108500,2.349108642578125,0.11534896518886088,0.02386811111513525,-0.019935009449906647
1638753848134128600,2.359128662109375,0.09918284328579902,-0.008269559966959059,-0.05473305884767323
1638753848144149500,2.3691494140625,0.04225859453678131,-0.03927618119250983,-0.1039508979378268
1638753848154169600,2.379169677734375,-0.01816051059067249,-0.05366762157324701,-0.13806109293559565
1638753848164190500,2.3891904296875,-0.04243979632258415,-0.05734576209671795,-0.16370247906725852
1638753848174210600,2.39921044921875,-0.004376315388083457,-0.04217091625332832,-0.1378842202650383
1638753848184231400,2.4092314453125,0.025924714851379392,-0.03254252555593848,-0.10276289372965693
1638753848194251500,2.41925146484375,0.052743163672089574,-0.05866948498114943,-0.11046080955481156
1638753848204272400,2.4292724609375,0.06832534820735454,-0.08008658621497451,-0.12172745071221143
1638753848214292500,2.43929248046875,0.06388415088951588,-0.0758185535069555,-0.1267614993566647
1638753848224312600,2.4493125,0.023580197551846503,-0.059539034357294435,-0.11599491667589172
1638753848234333400,2.45933349609375,0.014451134678721427,-0.018740904294513167,-0.08441703490102663
1638753848244353500,2.469353515625,0.03839490484595299,0.037793724082410336,-0.04219561230316758
1638753848254374400,2.47937451171875,0.07863748338520526,0.06597841975502669,-0.022615078846737743
1638753848264394500,2.48939453125,0.11945055528879164,0.07002784127630293,0.007395133486296981
1638753848274415600,2.49941552734375,0.14257248767912387,0.01612396326176822,-0.000509995348751545
1638753848284435500,2.509435546875,0.1166466037839651,-0.031081001636013388,-0.0014738902111537753
1638753848294455600,2.51945556640625,0.07569266210496425,-0.08073189838118851,-0.010677918016631156
1638753848304476400,2.529476318359375,0.047855391630530354,-0.11027334242500364,-0.020282562512252477
1638753848314496500,2.53949658203125,0.037915596896409984,-0.12781002202890812,0.008326916177384555
1638753848324517400,2.549517333984375,0.03807049519717693,-0.14476320265643297,-0.007111475973017514
1638753848334537500,2.559537353515625,0.04128010489344597,-0.16475830826312302,-0.05314845653735101
1638753848344558600,2.56955859375,0.05143383463919163,-0.15520517475903034,-0.03496328642945736
1638753848354578400,2.579578369140625,0.06382569870054722,-0.1562815718188882,-0.050697994645312425
1638753848364599600,2.589599609375,0.07605272758901119,-0.1551733913812786,-0.07766640986334532
1638753848374619400,2.599619384765625,0.09514730415940284,-0.0831581756800413,-0.05890289187822491
1638753848384639500,2.609639404296875,0.1053928038418293,-0.046531084224209186,-0.05027870978731662
1638753848394660400,2.619660400390625,0.11022972247898578,-0.015375117655843495,-0.06475611141845583
1638753848404680400,2.629680419921875,0.12221709739267825,0.01640431457310915,-0.07392112238779663
1638753848414701600,2.63970166015625,0.12148352242112159,0.03801445416100323,-0.05969334813617169
1638753848424721400,2.649721435546875,0.0690244363874197,0.03646415597908199,-0.01999996444489807
1638753848434742500,2.659742431640625,0.0542670122385025,0.028344124018028376,-0.000488075777888298
1638753848444762400,2.669762451171875,0.07268295889496802,0.022782471302896738,-0.01828713264502585
1638753848454783700,2.67978369140625,0.12551847702562807,-0.0007413198865950107,0.01354282419476658
1638753848464803600,2.689803466796875,0.16430208892822265,-0.0248203338060528,0.011284743069671093
1638753848474823400,2.699823486328125,0.15195347948670387,-0.037231815883331,-0.03263203047029674
1638753848484844500,2.709844482421875,0.12363865462839603,-0.02023877816945314,-0.042524223203025756
1638753848494864400,2.719864501953125,0.08024199597239494,-0.018997290208376944,-0.05514967682454735
1638753848504885800,2.7298857421875,0.04794716156721115,0.0015074088882654905,-0.019682130667380986
1638753848514905300,2.7399052734375,0.051989130434393876,0.013512027197703719,-0.009067432346381247
1638753848524926500,2.749926513671875,0.08816402114331721,0.012809431886300444,-0.012657529260218143
1638753848534946600,2.759946533203125,0.11818097374439239,0.046399347603321074,0.028287461927346883
1638753848544967400,2.769967529296875,0.13842472034990785,0.06163947723526507,0.02782817385252565
1638753848554987500,2.779987548828125,0.15158055452108382,0.08368271101079881,0.01702080250363797
1638753848565007400,2.79000732421875,0.1740992603212595,0.06573511251844465,-0.018137239312939344
1638753848575028500,2.800028564453125,0.15798866799771785,0.03088584439009428,-0.06724518828783184
1638753848585048300,2.81004833984375,0.11022738439142703,0.03172740978077054,0.05129859088696539
1638753848595069400,2.8200693359375,0.08744447469711303,-0.017546616476029158,0.014961933745071291
1638753848605089500,2.830089599609375,0.08018471282720566,-0.004255428954772651,0.005857713052257895
1638753848615110700,2.840110595703125,0.09152151487767696,0.03709383218474686,-0.01795183627605438
1638753848625130500,2.850130615234375,0.11857611054182052,0.08022800397966057,-0.011109569165855645
1638753848635151600,2.860151611328125,0.13455927709341048,0.08894947243258357,-0.0021152385883033272
1638753848645171500,2.87017138671875,0.13400690390765665,0.06995667573623358,0.026209413544274866
1638753848655191300,2.88019140625,0.15742577341794967,0.02563643596190959,0.02808550961446017
1638753848665212700,2.890212646484375,0.18278350203633306,0.057086197845079,0.14202376775518058
1638753848675232500,2.900232421875,0.18003215750157833,-0.002423172026313841,-0.02997179828509688
1638753848685253600,2.910253662109375,0.12178455119431018,-0.04355641579497605,-0.14156133787520228
1638753848695273700,2.920273681640625,0.04362579123675823,-0.008643398248031734,-0.12419632504377513
1638753848705294600,2.930294677734375,-0.012411153283715247,-0.005513831518031656,-0.18708035898003725
1638753848715314700,2.940314697265625,-0.020225041905045506,-0.03836275614202022,-0.21929014545027165
1638753848725335600,2.95033544921875,-0.0037339258313179016,-0.08977551146056502,-0.1345917180582881
1638753848735355600,2.960355712890625,0.04017068234682083,-0.11219108567982912,-0.08051865748930721
1638753848745375700,2.970375732421875,0.0787841983795166,-0.07833075552359223,-0.011424480333924293
1638753848755396600,2.980396728515625,0.057060442349314684,-0.021056597358360886,0.04921371090430766
1638753848765416700,2.990416748046875,0.06102233171761035,-0.0015745558403432369,0.1456363687617704
1638753848775437600,3.0004375,0.1075666407495737,-0.02073339328598231,0.24344010571409017
1638753848785457700,3.010457763671875,0.2010954037964344,0.036636224610358474,0.22371059224102643
1638753848795478500,3.020478515625,0.2374848140388727,0.060706982158124444,0.09540398233421146
1638753848805498600,3.03049853515625,0.20410744509398937,0.0864492165820673,-0.040111243777163325
1638753848815518700,3.040518798828125,0.1101595798522234,0.10256061262320726,-0.16576901967562735
1638753848825539600,3.05053955078125,0.020670447584986686,0.08592764039337634,-0.2029011745767668
1638753848835559700,3.0605595703125,-0.04968669871091842,0.029063670464232562,-0.17574366652742027
1638753848845580500,3.07058056640625,-0.051257309028506275,0.0028170301821082828,-0.11451361034326255
1638753848855600600,3.0806005859375,0.031137481063604353,-0.012330270067229867,-0.05236311484593898
1638753848865621500,3.09062158203125,0.12981120578348637,-0.03469170294646173,-0.017246939409710466
1638753848875641600,3.1006416015625,0.20163024132549762,-0.06557984889149665,0.010538418214395641
1638753848885662500,3.110662353515625,0.23348200813829897,-0.09522950255014002,0.05227028546333313
1638753848895682600,3.1206826171875,0.1807517039477825,-0.08657423120122403,0.11918036004528403
1638753848905702700,3.13070263671875,0.124371645078063,-0.036121589619107546,0.17901706217490135
1638753848915723500,3.1407236328125,0.09916706119477749,-0.013656659832783042,0.1460920035747811
1638753848925743600,3.15074365234375,0.10027239208817482,0.0009549991698935628,0.1276323639070615
1638753848935764500,3.160764404296875,0.10843582479953766,0.03860748815070837,0.1260288742331788
1638753848945784600,3.17078466796875,0.11599077022373676,0.0820300484329462,0.018281579687073824
1638753848955805400,3.180805419921875,0.0826665927708149,0.017845782085694373,-0.06654701342321932
1638753848965825500,3.190825439453125,0.04308627753257751,-0.001913688134215772,-0.10992697667274623
1638753848975846700,3.2008466796875,0.04790449146926403,0.04919347183387726,-0.18882066330872474
1638753848985866500,3.210866455078125,0.06540098519325256,0.08555376557968557,-0.20590495950262994
1638753848995887600,3.2208876953125,0.07872165453732013,0.04805694208461791,-0.2125517771059647
1638753849005907500,3.230907470703125,0.10598317095041275,0.018204203601926563,-0.16407449071742594
1638753849015927600,3.240927490234375,0.09665010993778705,0.004887589378468692,-0.11245576449800282
1638753849025948400,3.250948486328125,0.06683657095432281,0.015140833975933491,-0.09393767264131456
1638753849035968500,3.260968505859375,0.025019290444254872,0.019528803269192575,-0.10110394754149019
1638753849045989600,3.27098974609375,0.00253624047935009,0.01203088526185602,-0.12233001971524209
1638753849056009500,3.281009521484375,-0.02731120077371597,0.02299509114027023,-0.1421062949394807
1638753849066030600,3.291030517578125,-0.0579226121366024,0.039857013287767765,-0.1395651225566864
1638753849076050400,3.301050537109375,-0.06982756946384906,0.029895554711110887,-0.13681746781636028
1638753849086071600,3.311071533203125,-0.013795885640382767,0.041844058919139206,-0.1308700306540355
1638753849096091400,3.32109130859375,0.058764908179640765,0.061920741862058634,-0.12106007284466176
1638753849106111500,3.331111572265625,0.10697510459721088,0.14308354247380048,-0.03296769216544926
1638753849116132600,3.341132568359375,0.16567805345654488,0.12187949946876614,-0.04866068013142794
1638753849126152400,3.35115234375,0.15315350292623042,0.15219901521299034,-0.20358159458898006
1638753849136173600,3.361173583984375,0.08566402102112769,0.21637517131902276,-0.0015176745539531111
1638753849146193400,3.371193359375,0.07422142050862311,0.1967694668887183,0.023182028547115624
1638753849156214500,3.381214599609375,0.12316986807286738,-0.005051913094706833,0.016629355500638484
1638753849166234400,3.391234375,0.1496557239383459,-0.3851993042489514,-0.003669263097271323
1638753849176255500,3.40125537109375,0.2329705514848232,-0.8484603378217667,0.3504332939572632
1638753849186275600,3.411275634765625,0.46313364433348175,-0.5881710598438978,0.5797950438277796
1638753849196295400,3.42129541015625,0.4213911826252937,-0.2433290465550497,0.44276024346631015
1638753849206316500,3.431316650390625,0.13785598055124282,-0.2226503060657531,0.3396661815535277
1638753849216336400,3.44133642578125,0.008068740165233611,-0.14373747633788733,0.2195010847872123
1638753849226357500,3.451357421875,0.06112286948263645,0.07392514097578823,0.1407215625828132
1638753849236377600,3.461377685546875,0.04198854542374611,0.3010228183718398,0.06860164439808576
1638753849246398500,3.4713984375,0.02951075664460659,0.5379408653734251,-0.1237052901238203
1638753849256418600,3.48141845703125,0.0785357765763998,0.8048656723756342,-0.37539950250741094
1638753849266439400,3.491439453125,0.07912848177254199,0.7786622136481106,-0.48154316124916074
1638753849276459500,3.50145947265625,0.0814981335133314,0.48073915138989687,-0.4603649102725088
1638753849286479400,3.511479248046875,0.11242986287176608,0.12149963330570608,-0.3649456207713112
1638753849296500500,3.52150048828125,0.12873743907213211,-0.1279516955219209,-0.2705962620565668
1638753849306520600,3.5315205078125,0.1390554194688797,-0.21785686124414205,-0.2595021827207878
1638753849316541400,3.54154150390625,0.10541910732686519,-0.2854658413430676,-0.25315244836788625
1638753849326561500,3.5515615234375,0.09209376180768013,-0.317637853086181,-0.19294472096879034
1638753849336582400,3.56158251953125,0.08589607621133327,-0.34593068530838933,-0.12241017227936535
1638753849346602500,3.5716025390625,0.12678338239490985,-0.2930782160429284,-0.006712174457125365
1638753849356623400,3.581623291015625,0.15671616384387016,-0.12603460985422132,0.12525642855595798
1638753849366643500,3.5916435546875,0.14560440272092817,0.0711476025538519,0.20236692156959324
1638753849376664600,3.60166455078125,0.13216916708648205,0.4409093549026176,0.22395375334713608
1638753849386684400,3.611684326171875,0.0931143370270729,0.7701102200105786,0.09102317343410105
1638753849396704500,3.62170458984375,0.07685878327488899,0.9185017692320048,-0.04534735433235764
1638753849406725400,3.631725341796875,0.15398469305336474,1.1011967162020504,-0.17057393573932347
1638753849416745500,3.641745361328125,0.29095512294173237,1.2257968362737446,-0.32574093391243364
1638753849426766600,3.6517666015625,0.39769524973928927,1.0378490102767943,-0.39877672483306376
1638753849436786400,3.661786376953125,0.41490123608410356,0.6594402064181863,-0.48224761972408736
1638753849446807600,3.6718076171875,0.4093050235122442,0.33185536167211827,-0.7392686531536281
1638753849456827400,3.681827392578125,0.23645430194735526,-0.015129362733848392,-0.871630127941817
1638753849466848500,3.6918486328125,0.08427344344556331,-0.29928609423972663,-0.7857472034730016
1638753849476868600,3.70186865234375,-0.06865034237802028,-0.37552206944115457,-0.4605342754900455
1638753849486888400,3.711888427734375,-0.4363327311694622,-0.6268470466535538,0.11149879256673156
1638753849496909600,3.72190966796875,-0.5639566560417414,-0.6653769760560244,0.5352357346005737
1638753849506929700,3.7319296875,-0.31627953381240365,-0.19003226758819072,0.7603964160520583
1638753849516950500,3.741950439453125,-0.003940846580266952,0.3620792715547606,0.3525775029117241
1638753849526971000,3.751970947265625,0.220384041634202,0.917884952507913,-0.08663027223739772
1638753849536991700,3.76199169921875,0.36071781047582624,0.9825949597623199,-0.18357337377239016
1638753849547011800,3.77201171875,0.3564303424149751,0.08367766950950026,-0.017475122142396868
1638753849557032700,3.78203271484375,0.4093488626539707,-0.7260764324948191,0.44515579683333634
1638753849567052800,3.792052734375,0.4693091180980205,-1.0503854704406113,0.6509646390177309
1638753849577074000,3.802073974609375,0.36643385003507134,-1.1092911753304302,0.6796377757944166
1638753849587093800,3.81209375,0.09130991795361042,-0.9330720733109861,0.6487025393046438
1638753849597113900,3.82211376953125,-0.14023673820793628,-0.6035179743185639,0.28187994568031277
1638753849607134700,3.832134765625,-0.18522504996955394,-0.44551651990450913,0.03460009740656242
1638753849617154800,3.84215478515625,-0.03844692729413509,-0.3101149467680603,0.017512440211791543
1638753849627175700,3.85217578125,0.1666045206516981,-0.09634206690192222,0.06675877474406734
1638753849637195800,3.86219580078125,0.3229863379746675,0.02761201035119593,-0.05583608818612992
1638753849647217000,3.872216796875,0.2781447412073612,-0.24516484714746473,0.1296042119693011
1638753849657236700,3.88223681640625,0.13954291072487832,-0.5887347581412643,0.6560296673223376
1638753849667257900,3.8922578125,0.034274025523662564,-0.7674432658236473,0.6406101260028779
1638753849677277700,3.902277587890625,-0.143320091176033,-0.6507273231305182,0.5136542000526562
1638753849687299000,3.912299072265625,-0.22029753239452837,-0.3003970511563122,0.46545105443038043
1638753849697319000,3.92231884765625,-0.17517828772962094,-0.12183935012146829,0.2009024019749835
1638753849707338800,3.9323388671875,0.010958031865954398,-0.003334478184953332,-0.11963811375014483
1638753849717359900,3.94235986328125,0.08338555469512939,-0.21149477886632084,-0.3669525766795501
1638753849727379700,3.952379638671875,0.080361238437891,-0.10892200088128447,-0.3512758091960102
1638753849737401000,3.962401123046875,0.01101063883602619,-0.0764051942884922,-0.3417874114912003
1638753849747420700,3.972420654296875,-0.04373451230823994,-0.3551399372782558,-0.19561887208148837
1638753849757442000,3.982442138671875,0.001298223116993904,-0.4898964905094355,-0.014659023542050271
1638753849767462000,3.9924619140625,-0.001426233410835266,-0.5818949021838605,-0.06359926953352987
1638753849777483000,4.00248291015625,-0.06234802736341953,-0.6111595751129091,-0.012365341380611062
1638753849787503000,4.012503173828125,-0.14917875407636164,-0.5998063333842903,-0.1406034526284784
1638753849797522700,4.022522705078125,-0.18043197047412393,-0.35079920466020703,-0.11506561820283531
1638753849807544000,4.0325439453125,-0.017716858476400376,0.14664463248886167,-0.04491449760673567
1638753849817564000,4.04256396484375,0.17211013233065603,0.4206722207009792,-0.19778657150939105
1638753849827585000,4.0525849609375,0.3726858961671591,0.6113542939674109,-0.14136020754622294
1638753849837605000,4.062605224609375,0.5266846177458763,0.7195796178214252,0.16456229250067844
1638753849847626000,4.0726259765625,0.6086041915416717,0.7489996274426579,0.4525867505516857
1638753849857646000,4.08264599609375,0.623171061554551,0.9868485986188054,0.7120243801362812
1638753849867667000,4.0926669921875,0.4709136306852102,0.9281907310102134,0.701725250570476
1638753849877687000,4.10268701171875,0.29014965177774427,0.7163352290727197,0.6276553673617541
1638753849887708000,4.1127080078125,0.199400874838233,0.5008066646456718,0.5419545214615762
1638753849897728000,4.12272802734375,0.17699673532843588,0.04704685172662139,0.4720069058146327
1638753849907748000,4.132748046875,0.21215864960253236,-0.410194958089292,0.4928864661056548
1638753849917769000,4.14276904296875,0.28443361221849917,-0.7042620755717158,0.358549563058652
1638753849927789000,4.1527890625,0.24802841988503932,-0.21405520393885671,0.22361071206312624
1638753849937810000,4.162809814453125,-0.027871757265925407,0.2791211850240826,-0.14815914697134866
1638753849947830000,4.172830078125,-0.16975567815899847,0.35359044281393287,-0.3278494139663875
1638753849957851000,4.182850830078125,0.003007365122437477,0.17954758885502814,-0.24717985849799587
1638753849967871000,4.19287109375,0.34390754545032975,-0.2458531216725707,-0.036734570418298244
1638753849977891800,4.202891845703125,0.6005033026725053,-0.23906441138051449,0.17418598875664174
1638753849987912000,4.212911865234375,0.4976292036533355,-0.3096503979962319,0.13625742278080433
1638753849997932800,4.222932861328125,0.23175357691049575,-0.20692118734046816,0.09316997620444745
1638753850007953000,4.232952880859375,-0.04193301584422588,0.10123751079328358,0.055117655984777955
1638753850017973000,4.242972900390625,-0.24025720136165618,-0.17881006836071608,-0.07967296391278506
1638753850027993900,4.252993896484375,-0.22610475736856459,-0.207649282419309,0.06273359261490405
1638753850038014000,4.263013916015625,-0.13051380109488964,-0.10282631435468792,0.1462093828767538
1638753850048034800,4.273034912109375,0.03362462170422077,0.3001316051531583,0.05236764489058405
1638753850058055000,4.283054931640625,0.04878828856647014,0.0012923048328608274,-0.25635920851994304
1638753850068075800,4.29307568359375,0.091140991127491,-0.9756021052002907,-0.29706359588466585
1638753850078096000,4.303095947265625,0.25496494114995,-0.9679378541827202,-0.06342106342241167
1638753850088117000,4.313116943359375,0.17335341039001942,-0.9097393477141856,-0.2364493335112929
1638753850098136800,4.32313671875,0.05610708714723587,-0.45516303078047926,-0.2369367151694372
1638753850108158000,4.333157958984375,-0.07209843700528144,0.3978359003189951,-0.2898151956589892
1638753850118177800,4.343177734375,-0.2161912661194801,0.46031244943290944,-0.5470264178983867
1638753850128198000,4.353197998046875,-0.18925942005217075,0.4016118386611342,-0.25406021086256947
1638753850138218800,4.36321875,-0.02421907997727394,0.17308036560229956,0.006099558984115719
1638753850148238800,4.37323876953125,0.1471820273011923,-0.12508819584958256,0.14833938064277172
1638753850158260000,4.383260009765625,0.19505437006652354,-0.09959982658885419,0.44561577902790156
1638753850168279800,4.39327978515625,0.0677566084086895,-0.21243600523918865,0.44723990963101384
1638753850178301000,4.403301025390625,-0.03164367702007294,0.09041574559286236,0.5356885198693723
1638753850188320800,4.41332080078125,-0.03083820585608482,0.6729589556176215,0.46422019746117293
1638753850198342000,4.423341796875,0.04093640602231025,1.114237326495722,0.1261059580573812
1638753850208362000,4.433362060546875,0.16491642143428326,0.8603432294476777,-0.2825119234409183
1638753850218382800,4.4433828125,0.2709691504895687,-0.0784905491951853,-0.21872688554432243
1638753850228403000,4.45340283203125,0.3399187680751085,-0.5184846524164081,-0.0717072822632268
1638753850238422800,4.4634228515625,0.22289573219418524,-0.5390984013780952,-0.05557582981474697
1638753850248444000,4.47344384765625,0.019115034836530684,-0.4674726964510977,0.02954385519661009
1638753850258463700,4.483463623046875,-0.14028583804666994,-0.201337176663056,0.11300320578031241
1638753850268484900,4.49348486328125,-0.185305129468441,-0.0032540333598852157,0.23768358801398426
1638753850278505000,4.5035048828125,-0.01609305666685104,0.38136487718522544,0.18307364408932625
1638753850288525800,4.51352587890625,0.18580314211845397,0.7993236742090434,0.07212671325169503
1638753850298546000,4.5235458984375,0.32684652053415775,0.6403532286323607,-0.15302797685042022
1638753850308566800,4.53356689453125,0.31381811213493344,0.2578365510635078,-0.23160353744793682
1638753850318587000,4.5435869140625,0.19716332504451273,-0.025721593494713306,-0.11654811184555292
1638753850328607700,4.553607666015625,0.08849135340154171,-0.17384733138680458,-0.0858470494378358
1638753850338627800,4.5636279296875,0.05079202960431575,-0.20051453516855836,-0.06407426663413643
1638753850348648000,4.57364794921875,0.08686229089498519,-0.03156476656496525,0.03522321600727737
1638753850358668800,4.583668701171875,0.11255670412182807,0.07885551005005836,0.040991862536594266
1638753850368689000,4.59368896484375,0.10469371566176414,0.13053886247090996,0.11220920585840939
1638753850378709800,4.603709716796875,0.04585048154890537,0.014541370245441793,0.10506379108317196
1638753850388729900,4.613729736328125,0.04225158027410507,-0.10463175634145735,0.054669820885732766
1638753850398750700,4.623750732421875,0.10613982281684875,-0.09174129510819912,-0.04106478164233267
1638753850408770800,4.633770751953125,0.14721885218024253,0.0011287848342210053,-0.1261922115687281
1638753850418792000,4.6437919921875,0.17065934900045393,0.11936996433325112,-0.224142955776304
1638753850428811800,4.653811767578125,0.1845388212710619,0.2943743568006903,-0.20187069901786744
1638753850438833000,4.6638330078125,0.17953706746101378,0.39422041323557494,-0.07299830845445394
1638753850448852700,4.673852783203125,0.17254735470414162,0.44829935555607076,0.04319309890791773
1638753850458872800,4.683872802734375,0.1305500414520502,0.2009247234046459,0.1235891894634813
1638753850468894000,4.69389404296875,0.13048106786906719,-0.09923793447390199,0.15639613810926675
1638753850478913800,4.703913818359375,0.20124387235641478,-0.11462861502505838,0.1350042443819344
1638753850488935000,4.713934814453125,0.16292846248745918,-0.10156199350729585,0.10309022598788141
1638753850498955000,4.723955078125,0.0281073195874691,-0.21604104399383067,-0.032832521478459234
1638753850508975900,4.733975830078125,-0.04735387184917927,-0.177325675021857,-0.10432912013307213
1638753850518996000,4.743995849609375,-0.07294482470154762,-0.14307334987334905,-0.19802184156998992
1638753850529017000,4.75401708984375,-0.05502338356375694,-0.06419445894770325,-0.2313548599164933
1638753850539037000,4.764036865234375,0.022579496076703072,0.006310206060111522,-0.23771058561876415
1638753850549058000,4.77405810546875,0.08131400911808014,-0.06924363209605217,-0.1996264272224158
1638753850559078000,4.784077880859375,0.11957622749507427,-0.03508249236233532,-0.17570092336423693
1638753850569099000,4.79409912109375,0.09137363083958626,0.009151420835405587,-0.17314437074922023
1638753850579118800,4.804118896484375,0.014715338572859763,0.04235664808377623,-0.1290506697397679
1638753850589139000,4.814138916015625,-0.06339841319918632,0.05348762536384165,-0.06554594662189484
1638753850599160000,4.82416015625,-0.10862345632612705,0.03565444703139364,-0.00492423159442842
1638753850609180000,4.834179931640625,-0.12166764681637286,0.005064662978425622,0.07243278352618217
1638753850619201000,4.844200927734375,-0.0641968701004982,-0.015446721587330101,0.11451032240763306
1638753850629220900,4.854220947265625,0.04884440266788006,0.03440802716687322,0.09488901854939759
1638753850639242000,4.864241943359375,0.13107085045576095,0.03680354400128126,0.056140039568766946
1638753850649261800,4.87426171875,0.16680442713797092,-0.010601765774190424,0.027881328811869024
1638753850659283000,4.884282958984375,0.18941139574348925,-0.04363828539215028,-0.0010311696786433457
1638753850669303000,4.894302978515625,0.15416297222971914,-0.021869813437387347,-0.03518200721405446
1638753850679324000,4.904323974609375,0.09845803614258766,-0.009699848498404025,-0.05997377251274883
1638753850689344000,4.914343994140625,0.06391571507155895,0.017735563176870344,-0.040202684920281166
1638753850699364900,4.92436474609375,0.08007657627761364,0.060235711384564634,-0.010186389906331896
1638753850709385000,4.934385009765625,0.13549275855123996,0.07263846216611564,0.02403985095284879
1638753850719405000,4.944405029296875,0.17794892148673533,0.054512292236462236,0.05460968819633126
1638753850729426000,4.954426025390625,0.1842722792893648,0.042396760898455975,0.06495813679657876
1638753850739446000,4.964446044921875,0.11651391731500625,0.01849427258968353,0.06269435658305883
1638753850749467000,4.974466796875,0.0535176551759243,0.00476626455374062,0.06374993005059659
1638753850759487000,4.984487060546875,0.05703180077672004,0.019651552866026756,0.034325390384718775
1638753850769507800,4.9945078125,0.07092705513834953,0.0382599533546716,-0.006744286628440022
1638753850779528000,5.00452783203125,0.08444178574979305,0.016915990422293543,-0.04135653113052249
1638753850789548800,5.014548828125,0.1100982050538063,-0.024626053342968225,-0.08432765785083174
1638753850799569000,5.02456884765625,0.18118191205859183,-0.05441672290749847,-0.08000029617100954
1638753850809589800,5.03458984375,0.31171909402906894,0.020040771379321812,-0.028074440231174228
1638753850819609900,5.04460986328125,0.30127836403548713,0.06476093372404575,-0.10434256413653492
1638753850829630000,5.0546298828125,0.09739128369390963,0.03486928800307214,-0.09163476599380374
1638753850839650800,5.06465087890625,0.04679214631319046,0.0729574649874121,-0.022548589481785893
1638753850849671000,5.0746708984375,0.17574819657206533,-0.0038194852229207752,0.06505173336416482
1638753850859691800,5.08469189453125,0.22821546591222286,-0.1437202694747597,0.0508848224543035
1638753850869712000,5.0947119140625,0.31105624620616434,0.03777553083859384,-0.038761400070786475
1638753850879732700,5.104732666015625,0.15324761095046996,0.14424400108791888,-0.10285999742858111
1638753850889752800,5.1147529296875,-0.27773206875324247,0.1735260635431856,-0.05576733379885554
1638753850899774000,5.12477392578125,-0.2401467267245054,0.23311719341389833,0.0012600830636918545
1638753850909793800,5.134793701171875,-0.09269698839783667,0.16268544751182198,0.09397066159546374
1638753850919815000,5.14481494140625,-0.005351882421970367,0.11881846793033182,0.009134908092021941
1638753850929834800,5.154834716796875,-0.09589958383142948,0.0945597135297954,0.005353855183348059
1638753850939856000,5.16485595703125,-0.22719430617094039,0.07495294965356587,0.10858509707711636
1638753850949875700,5.174875732421875,-0.16280805097818374,0.06971402608677744,-0.043915129572153086
1638753850959895800,5.184895751953125,-0.0624713614821434,0.12378515042699872,-0.32136757766641677
1638753850969917000,5.1949169921875,-0.1721954725265503,0.2060452812887728,-0.2945877803556621
1638753850979936800,5.204936767578125,-0.07463876913785934,0.19109109245873987,-0.004692907056584954
1638753850989958000,5.2149580078125,0.25102526361346245,0.17763722518905997,0.3097327425174415
1638753850999977700,5.224977783203125,0.25568390307426453,0.2459983022969216,0.3850586902018636
1638753851009998800,5.234998779296875,0.20933190174400806,0.5036331202432512,0.4177644434954971
1638753851020018700,5.245018798828125,0.23587620979845522,0.8943705867338925,0.6281503843370825
1638753851030039800,5.255039794921875,0.38941725073754785,0.765962598811835,0.7339599522862583
1638753851040060000,5.265059814453125,0.5582026225596666,0.5756106342826038,0.42318376513049005
1638753851050080800,5.275080810546875,0.3707458680152893,0.5732681628096848,-0.044071123851463195
1638753851060100900,5.285100830078125,-0.08359539805352688,0.5336801757216453,0.014850216998904943
1638753851070122000,5.2951220703125,-0.22819383860230444,0.4175630026392638,0.051373701949790115
1638753851080141800,5.305141845703125,-0.1030137997508049,0.259838757731393,-0.02043736948147416
1638753851090162000,5.315161865234375,0.08066343625485897,-0.042761721753329034,-0.21691263919658957
1638753851100183000,5.32518310546875,0.12442951274514198,-0.43018166119381784,-0.4489724325120449
1638753851110203000,5.335202880859375,0.14090776933729648,-0.7779187748696654,-0.7269553342211991
1638753851120224000,5.34522412109375,0.03686754914820194,-0.9721006729505955,-0.6795470287710428
1638753851130243800,5.355243896484375,-0.041783378240466115,-1.1222495872333644,-0.38735264635793865
1638753851140265000,5.365264892578125,-0.04087503122389316,-1.136798483198136,-0.14207031031064687
1638753851150285000,5.37528515625,0.0037491234004497524,-1.1024382406957447,0.030063787417486307
1638753851160306000,5.385305908203125,0.1687391945928335,-0.9876647373072802,-0.2443464069040492
1638753851170326000,5.395325927734375,0.08244973514974117,-0.2434148251423612,-0.22688129469901322
1638753851180347000,5.405346923828125,0.2018044288486242,0.1959662242144346,-0.007899228817224503
1638753851190367000,5.415366943359375,0.41886195640861984,0.0868312747022137,-0.04525960298366844
1638753851200387800,5.425387939453125,0.41497488584220404,0.09188746211323887,-0.07235376347322016
1638753851210408000,5.435407958984375,0.02874211035966873,0.25660766685567793,0.18595172027628867
1638753851220428000,5.445427978515625,-0.24503449876606462,0.473575579903461,0.4383209093119949
1638753851230449000,5.455448974609375,-0.3509422663927078,0.674117039611563,0.35122649016156793
1638753851240469000,5.465468994140625,-0.3595218786895275,0.8986492869663983,0.34858803141675887
1638753851250489900,5.47548974609375,-0.059578562650084495,0.8349689880859106,0.17925657001920042
1638753851260510000,5.485510009765625,0.20292963348627088,0.5931679182831198,0.007835844724811613
1638753851270530800,5.49553076171875,0.37725802638828754,0.17475429016388952,-0.004262772011011839
1638753851280551000,5.505551025390625,0.6835071645736694,-0.4091523902337998,-0.05851886099670082
1638753851290572000,5.515572021484375,0.8230565050393343,-0.9380747769691049,0.0611103753272444
1638753851300591900,5.525591796875,0.659990095385909,-1.526783158560097,0.002838876687735319
1638753851310613000,5.535613037109375,0.28283026867508887,-1.7509920191794632,-0.5537645305143669
1638753851320632800,5.5456328125,0.05927110413610935,-0.49157238783240315,-0.18139405697192995
1638753851330654000,5.555654052734375,0.08214578376710414,0.3612059227863326,-0.03991232367157936
1638753851340674000,5.565674072265625,-0.06603051526844501,0.2744349999692291,-0.31811960872113704
1638753851350694000,5.57569384765625,-0.2660299405217171,0.06250460616461932,0.009893069515563548
1638753851360715000,5.585715087890625,-0.3151321173429489,-0.09661624420080334,0.1138686635032296
1638753851370734800,5.59573486328125,-0.10323357998132705,-0.17904763997625558,0.18142971280720083
1638753851380756000,5.605755859375,0.14905951161086559,-0.2588015967033803,0.13509773135166614
1638753851390775800,5.61577587890625,1.1444096888542175,0.09157083391211926,-0.5892426711307838
1638753851400797000,5.625796875,0.9415992978334426,0.6875267754785717,0.14457294078134
1638753851410817000,5.635817138671875,-0.0778518859654665,0.6568421527490019,0.4638378836126998
1638753851420838000,5.645837890625,-0.6545698239028453,0.32090364994909615,0.23928616437241435
1638753851430858000,5.65585791015625,-0.5976824000328779,0.1717575925659388,0.38045868559312074
1638753851440878800,5.66587890625,-0.030788521495461463,0.06317994814291596,0.2161849094439298
1638753851450899000,5.67589892578125,0.3637736909151077,-0.12538206422962248,0.027797486453317106
1638753851460919800,5.685919921875,0.37719606706798076,-0.1471780452458188,0.00657503100875765
1638753851470940000,5.69593994140625,0.27643384563624857,-0.07490574951097369,0.03610043723322451
1638753851480960000,5.7059599609375,0.11336042172014713,-0.07792071341797709,-0.06292107801102101
1638753851490980900,5.71598095703125,-0.04021861314177513,-0.10258731796704232,-0.15803572200983762
1638753851501001000,5.7260009765625,-0.09234919787347316,-0.10021317271422595,-0.16785561669133603
1638753851511021800,5.736021728515625,-0.04359831870794296,-0.06954071534648537,-0.13464487301763145
1638753851521042000,5.7460419921875,0.02421907997727394,-0.05060114667471498,-0.12115107559636235
1638753851531062800,5.756062744140625,0.06768997291326523,-0.01845255233980715,-0.10328885383252054
1638753851541083000,5.766082763671875,0.08144728010892868,-0.013868366354703902,-0.08276431752424687
1638753851551103700,5.776103759765625,0.07108370700478553,-0.024223281228356063,-0.06356836293861269
1638753851561123800,5.786123779296875,0.08211597315073013,-0.012705606185644864,-0.021264102629199623
1638753851571144700,5.796144775390625,0.09309387876093388,-0.006117679162696003,0.004310191349312663
1638753851581164800,5.806164794921875,0.11855799036324023,0.06714538117516786,0.07161569498963653
1638753851591186000,5.81618603515625,0.13997194979190825,0.1347255370384082,0.11995050416756421
1638753851601205800,5.826205810546875,0.15250293006300925,0.1716797050241381,0.1353599990170449
1638753851611227000,5.836226806640625,0.15583996553122997,0.18493286208994686,0.13698391042444855
1638753851621246700,5.846246826171875,0.16389584621489048,0.16891696231253445,0.12694266460984946
1638753851631266800,5.856266845703125,0.16589140394628046,0.13148841828070582,0.10211454935614019
1638753851641287700,5.86628759765625,0.1648357574135065,0.06419047689232975,0.06513367602657526
1638753851651307800,5.876307861328125,0.170631291949749,0.04359707659892738,-0.010792612171173095
1638753851661329000,5.886328857421875,0.16494330944120883,0.008896459693647921,-0.0451674677208066
1638753851671348700,5.8963486328125,0.15542670855522156,-0.0412566874852404,0.03021042934656143
1638753851681369900,5.906369873046875,0.18150632170736788,-0.04951181706804782,0.12447528811562805
1638753851691389700,5.9163896484375,0.2154822410672903,-0.024467830573953686,0.18751071322131901
1638753851701411000,5.9264111328125,0.2110936507195234,0.005276515630818903,0.24340090621486304
1638753851711431000,5.936430908203125,0.21293021849691868,0.07223956250902265,0.2847365041552111
1638753851721452000,5.9464521484375,0.21603695234060286,0.20557689659204334,0.2783201708395034
1638753851731472000,5.956471923828125,0.20196926402151583,0.2503189785076305,0.20778993299901485
1638753851741493000,5.966492919921875,0.15383330188393593,0.12291592984441667,0.162419636182487
1638753851751513000,5.97651318359375,0.07276537648141383,0.01807422054670751,0.11330686490200459
1638753851761534000,5.986533935546875,0.006698036333918571,-0.003587685761041939,0.014512546009756624
1638753851771554000,5.996553955078125,0.01700724890232086,0.048335795558616515,-0.057568428404070435
1638753851781574000,6.006573974609375,0.027387773141264914,0.0691905867345631,-0.05986574556101113
1638753851791595000,6.016594970703125,0.014968436551094054,0.009236797563917935,-0.08410776802245527
1638753851801615000,6.026614990234375,-0.02863280476629734,-0.07520531697943807,-0.1299593455499038
1638753851811636000,6.036635986328125,-0.04748480475246906,-0.07624240494221449,-0.16233330960590392
1638753851821656000,6.046656005859375,-0.0172626849681139,-0.040238304222933945,-0.21219569367729127
1638753851831677000,6.056677001953125,0.03184299898445606,-0.013380582837760448,-0.1941129975631833
1638753851841697000,6.066697021484375,0.08372691547870635,0.033693851015530525,-0.08287895687986165
1638753851851718000,6.0767177734375,0.08720248263478278,0.04413659030310809,0.04781283113043755
1638753851861738000,6.086738037109375,0.024225509718060492,0.026827180116437373,0.0738722417447716
1638753851871758800,6.0967587890625,-0.03552490236759186,0.027446846384741364,0.027323512266017494
1638753851881779000,6.106779052734375,-0.06511515398919582,0.024288565016910433,-0.017735417046397924
1638753851891799800,6.1167998046875,-0.0185305129468441,0.02215045700967312,-0.06043795595839619
1638753851901820000,6.12681982421875,0.0847878227084875,0.022133980798907577,-0.07356335845869034
1638753851911841000,6.136841064453125,0.16613982574939726,0.017274996460415422,-0.06537438944727182
1638753851921860900,6.14686083984375,0.2110457199245691,0.024173231541551647,-0.026577004747651515
1638753851931881000,6.156880859375,0.19391162977218626,0.026465397599339482,0.011198927949741483
1638753851941901800,6.16690185546875,0.1514893691062927,0.036520635406672955,0.04340809336546808
1638753851951922000,6.176921875,0.10707798044979572,0.0328903526129201,0.07302249304763972
1638753851961942800,6.18694287109375,0.08625906430482864,0.05058434167038649,0.09785422503054142
1638753851971963000,6.196962890625,0.09935586176514626,0.058414121980592607,0.12987579545229672
1638753851981984000,6.20698388671875,0.12661620913445948,0.04829539048299193,0.139392396338284
1638753851992003800,6.21700390625,0.15938216818273065,0.04091788398493081,0.12408848075512796
1638753852002025000,6.22702490234375,0.16506547451615333,0.037435521761886775,0.09421926606167107
1638753852012044800,6.237044921875,0.15295125835239887,0.04632076594177633,0.053990533384680746
1638753852022066000,6.24706591796875,0.13066460774242877,0.054190366805717344,0.031436573608033355
1638753852032086000,6.2570859375,0.11674421893954276,0.05353646947424859,0.015156068077683448
1638753852042107000,6.26710693359375,0.10150105710029601,0.06264631619025021,0.0018313070803880691
1638753852052127000,6.277126953125,0.09914251127541064,0.06391034477669745,0.013440642461925743
1638753852062147800,6.28714794921875,0.09108721511363983,0.06176394386515021,0.00507828964497894
1638753852072168000,6.29716796875,0.09095628221035003,0.045879634578153486,0.0004316694155335426
1638753852082188800,6.307188720703125,0.08348609246015548,0.039039888218604026,-0.004098119501210749
1638753852092209000,6.317208984375,0.0812590640604496,0.041533714328333735,-0.006268631940707564
1638753852102229000,6.32722900390625,0.07259820322096347,0.046967795141041276,0.014784458286315201
1638753852112249900,6.337249755859375,0.07784019552767277,0.027390001630969343,0.00836158563196659
1638753852122270000,6.34727001953125,0.10897124685049056,0.0012466025276109576,0.0195276342254132
1638753852132290800,6.357290771484375,0.10899404320418835,0.012306925724260509,0.01224050942454487
1638753852142311000,6.367310791015625,0.09749591311216353,0.050878356180898844,-0.023154921344481407
1638753852152331800,6.377331787109375,0.08584872993826866,0.07389595141392201,-0.023564890384860336
1638753852162351900,6.387351806640625,0.08422551265060901,0.07541811947990208,0.0005522270552814006
1638753852172372700,6.397372802734375,0.09440203875005244,0.026854725710488855,0.03247059283088893
1638753852182392800,6.407392822265625,0.1113403140693903,-0.05744067383855581,0.04975727972909808
1638753852192413700,6.41741357421875,0.10793196693062782,-0.10547628087420016,0.04682455074544996
1638753852202433800,6.427433837890625,0.06158639534115791,-0.12397365873642265,0.06034830491356551
1638753852212455000,6.437454833984375,0.05669628521203995,-0.12783369516544044,0.0736035808712244
1638753852222474800,6.447474853515625,0.09040975424349307,-0.09944836235418915,0.07464669671598821
1638753852232495900,6.457495849609375,0.10947393567562103,-0.04512271526362747,0.0664382192865014
1638753852242515700,6.467515625,0.11283727462887763,0.01802723959982395,0.05421224984396249
1638753852252535800,6.477535888671875,0.10152034632265568,0.06749693455919623,0.028335538852773606
1638753852262556700,6.487556640625,0.09749240598082543,0.1110021681562066,-0.004144114067405462
1638753852272576800,6.49757666015625,0.10344809951484203,0.13175620237141847,-0.022093319994956253
1638753852282598000,6.507597900390625,0.10057049825191497,0.12289678675252944,-0.026208865555003284
1638753852292617700,6.51761767578125,0.10069500141441821,0.10855579791739582,-0.03213032802585512
1638753852302639000,6.52763916015625,0.10532149217128753,0.07432236013244838,-0.015196838479489088
1638753852312658700,6.53765869140625,0.11131693319380283,0.04510243966057896,-0.0023066695071756837
1638753852322680000,6.54768017578125,0.09638064534664154,0.018171068517304954,0.01806172639131546
1638753852332699600,6.55769970703125,0.09867314019799232,0.003123648445867002,0.025476532692462205
1638753852342721000,6.567720947265625,0.10125672695040702,0.01183247661292553,0.027497334462963045
1638753852352741000,6.5777412109375,0.1045996076375246,0.016386851981654762,0.028918562905117868
1638753852362762000,6.587761962890625,0.09087386462390422,0.02741170200612396,0.02425904666148126
1638753852372782000,6.597781982421875,0.09928571913838385,0.042884252154454586,0.015518763910233973
1638753852382803000,6.607802978515625,0.10260229634046554,0.05157375456653535,0.00205064891949296
1638753852392823000,6.617822998046875,0.09557926583588122,0.038547136265598234,-0.010889496674388646
1638753852402844000,6.627843994140625,0.0966349123686552,0.03599986293558031,-0.0036108839735388754
1638753852412864000,6.637864013671875,0.0931932474821806,0.024351839511469006,-0.008595065594278275
1638753852422884000,6.647884033203125,0.08916355357468128,0.00711779611594975,0.016440664528124035
1638753852432905000,6.657905029296875,0.10145312630534171,-0.01121430818196386,0.011663220993243158
1638753852442925000,6.667925048828125,0.11194704779088496,-0.02261325221583247,0.01928655547853559
1638753852452946000,6.67794580078125,0.09641279405057429,-0.022895795484259723,0.02515139239132404
1638753852462966000,6.687966064453125,0.09778232883810996,-0.02502451460864395,0.03316124197617173
1638753852472987000,6.69798681640625,0.09451426695287227,-0.013205664662271738,0.032275654780678446
1638753852483007000,6.708007080078125,0.0954231984913349,-0.004248305094242096,0.026944449820555744
1638753852493027800,6.71802783203125,0.09544307223558425,0.005455452394299209,0.037235249949432905
1638753852503048000,6.7280478515625,0.09202186561524868,0.022290230806544423,0.03169591866396367
1638753852513068800,6.73806884765625,0.10220248336791991,0.02039627028610557,0.022510449428483844
1638753852523088600,6.748088623046875,0.09892740722000598,0.028995427533611652,0.02439987990427762
1638753852533109800,6.75810986328125,0.09549743277132511,0.0266734508594498,0.017719963748939336
1638753852543129600,6.768129638671875,0.09236790257394313,0.03254928409028798,0.01744443474318832
1638753852553150700,6.778150634765625,0.09134089761376381,0.02736216377597302,0.0163992730718106
1638753852563170600,6.788170654296875,0.09734744455218315,0.02608198777232319,0.020266725622303784
1638753852573191700,6.798191650390625,0.10081015222668648,0.014377411855384707,0.009567783083952962
1638753852583211800,6.808211669921875,0.1042810432076454,0.019485037192702292,0.007575147962011397
1638753852593231600,6.818231689453125,0.09577566519081591,0.01982190446425229,0.008403890403732657
1638753852603252700,6.828252685546875,0.0992360347777605,0.021254786811582743,0.012306450800225138
1638753852613272600,6.8382724609375,0.1035930609434843,0.018865188261307776,0.012003595396131276
1638753852623293700,6.848293701171875,0.09972177246809005,0.0259105767281726,0.003130151251889765
1638753852633313500,6.8583134765625,0.09629647419452667,0.02414966800287366,0.008063077609427273
1638753852643334700,6.868334716796875,0.09482055642306804,0.01817223756108433,0.016215988926775754
1638753852653354800,6.878354736328125,0.10290449415743351,0.01878821403495967,0.00832567406836897
1638753852663375600,6.888375732421875,0.09288052827119826,0.011219934205152094,0.013912205496430395
1638753852673395700,6.898395751953125,0.0985690953016281,0.00865234873946756,0.01791369622275233
1638753852683416600,6.90841650390625,0.09228957664072512,0.0043374446824193,0.016705087617971
1638753852693436700,6.918436767578125,0.07942834150195122,0.007997063168510794,0.018840455678850412
1638753852703457500,6.92845751953125,0.09634382046759128,0.009299231808260082,0.012739143129065633
1638753852713477600,6.9384775390625,0.09814999310672283,0.009404957205057143,0.012233677824959158
1638753852723498500,6.94849853515625,0.09935644628703594,0.008350004792027174,0.008552285898476838
1638753852733518600,6.9585185546875,0.09039806380569934,0.015752937992289662,0.0006522898962721228
1638753852743539500,6.96853955078125,0.10388181475698947,0.008018580880574881,0.004969897367060184
1638753852753559600,6.9785595703125,0.10000409654080868,0.022621252859197555,0.009314283246919512
1638753852763579600,6.98857958984375,0.09163958829939364,0.017934556347690523,0.011189429469034074
1638753852773600500,6.9986005859375,0.09120061236023902,0.013148966038972138,0.014520254392176865
1638753852783620600,7.00862060546875,0.09868833776712417,0.01189290156327188,0.010830496496148407
1638753852793641500,7.018641357421875,0.1022860699981451,0.01332045014835894,0.015523951542004942
1638753852803661600,7.02866162109375,0.08718143984675407,0.0061334612537175415,0.013661737866699695
1638753852813682700,7.0386826171875,0.0927221228390932,0.005641184224747121,0.017343933510780334
1638753852823702500,7.04870263671875,0.09002806144952774,0.01519928616490215,0.019333280697092413
1638753852833724000,7.058723876953125,0.10096388148367404,0.015110621500760316,0.019104988366551695
1638753852843743700,7.06874365234375,0.09903379020392894,0.017229513350874186,0.010612542896531522
1638753852853764900,7.078764892578125,0.09292027575969695,0.025528116749227045,0.017773922425881026
1638753852863784700,7.08878466796875,0.09711480484008789,0.031065731001645325,0.017348207827098668
1638753852873805800,7.098805908203125,0.09832301158607006,0.031117570786736905,0.011177227574586867
1638753852883825700,7.10882568359375,0.09908698169589042,0.02659695155713707,-0.002237257532775402
1638753852893846800,7.1188466796875,0.10927169110178947,0.024911263492517172,0.0056227352526038886
1638753852903867000,7.128866943359375,0.09641571666002273,0.011791852341592312,0.01690733219180256
1638753852913887700,7.1388876953125,0.0988309611082077,0.006656316084042191,0.012373743882775306
1638753852923907800,7.148907958984375,0.103026659232378,0.00526866111792624,0.01615494292192161
1638753852933927700,7.158927734375,0.09690671504735945,0.003513305350579321,0.015130824038572608
1638753852943948800,7.16894873046875,0.10650573351979255,-0.0034744711775332687,0.02332505374699831
1638753852953968600,7.17896875,0.10846797350347041,-0.0008096724150702357,0.022612667693942785
1638753852963989800,7.18898974609375,0.10308686498701572,0.002396612812951207,0.021650215869955716
1638753852974009900,7.199009765625,0.09681552963256836,0.001356017718836665,0.021462547810748217
1638753852984030700,7.20903076171875,0.10893383744955062,0.0018712737645953893,0.01696147353183478
1638753852994050800,7.21905078125,0.10504618236124515,0.015411650273948908,0.01710964983087033
1638753853004071700,7.22907177734375,0.10385258866250514,0.0128118430390954,0.02334803276378661
1638753853014091800,7.239091796875,0.10894026719033717,0.0029198695020750164,0.011838066103495656
1638753853024112600,7.249112548828125,0.09607494039833545,0.01151661559678614,0.015105397336371243
1638753853034132700,7.2591328125,0.0969832874149084,0.019635113187879322,0.0064080404113978145
1638753853044153600,7.269153564453125,0.09085282183587551,0.014725056249275803,0.008331080895848572
1638753853054173700,7.279173583984375,0.09549567920565605,0.00578044656496495,0.013423472131416201
1638753853064194600,7.289194580078125,0.09356558792591095,0.0063327466854825615,0.017706044821441173
1638753853074214700,7.299214599609375,0.09552198269069194,0.007214826749637722,0.0045564577279612415
1638753853084235800,7.30923583984375,0.09837152690291404,0.014481420219130813,0.003550459023192525
1638753853094255600,7.319255615234375,0.08954758445620536,0.017727306805178523,0.01799739245083183
1638753853104276700,7.32927685546875,0.10122808537781237,0.011942293662950396,0.017101101198233663
1638753853114296600,7.339296630859375,0.10737316400408745,0.014199169211648403,0.01370119309425354
1638753853124317700,7.349317626953125,0.09227730168104172,0.013590499261394143,0.008918561927601695
1638753853134337500,7.359337646484375,0.10021160181164741,0.025973120570369063,0.005851173713617027
1638753853144357600,7.369357666015625,0.09287819018363952,0.02170114233959466,0.004467646933346986
1638753853154378800,7.379378662109375,0.10365794287323951,0.010109744473546742,0.008122041255049407
1638753853164398600,7.389398681640625,0.10650222638845443,0.014580606277287005,0.013801657794043421
1638753853174419700,7.399419677734375,0.09739595986902713,0.01456814865451306,0.01189377834610641
1638753853184439600,7.409439453125,0.10040274046957492,0.017329028202593324,0.013090769578330217
1638753853194460700,7.419460693359375,0.0968219593733549,0.007298230716772377,0.015363171489723026
1638753853204480800,7.429480712890625,0.10236614949703216,0.0032257936460897323,0.012956658337265252
1638753853214501600,7.439501708984375,0.10311726012527941,-0.0003051934916526079,0.010288206312991679
1638753853224521700,7.449521728515625,0.08680793035924435,-0.00161433986146003,0.01622084776498377
1638753853234542600,7.45954248046875,0.08920856176018714,0.0027012583153322336,0.013083170793764292
1638753853244562700,7.469562744140625,0.0992448026061058,0.005800795233249664,0.018237484817020595
1638753853254583600,7.47958349609375,0.09132043934762478,0.0017465514063835143,0.012108224814385175
1638753853264603600,7.489603759765625,0.09866320332586764,0.0014754428474232553,0.013297251935862004
1638753853274624500,7.49962451171875,0.09702361942529678,0.006044102469831705,0.01348860978949815
1638753853284644600,7.50964453125,0.09478431606590747,0.006151837160624563,0.012946940660849213
1638753853294665500,7.51966552734375,0.10347323395609855,0.0021892536725848914,0.019944727126322684
1638753853304685600,7.529685546875,0.09854396086037158,0.007157835865393281,0.007389452664181589
1638753853314706700,7.539706787109375,0.09810381587743759,0.004155731439962983,0.010744754441455007
1638753853324726500,7.5497265625,0.09302548969984054,0.017694975438155233,0.004129537552781403
1638753853334746600,7.55974658203125,0.10619885952770709,0.01626545409169048,0.008575411045737565
1638753853344767500,7.569767578125,0.10396247877776622,0.016134521188400686,0.009226897224411367
1638753853354787600,7.57978759765625,0.10052724363207817,0.019302593297883867,0.0008086129691451787
1638753853364808700,7.58980859375,0.09634206690192222,0.017004107097163795,0.0026734569929540157
1638753853374828500,7.59982861328125,0.1017325277686119,0.016578246367909014,0.010921974171884357
1638753853384849700,7.609849609375,0.105022216963768,0.009690861474350094,0.012197218272089957
1638753853394869800,7.619869873046875,0.10667816747725009,0.007362528124637902,0.011412461102567613
1638753853404891000,7.629890869140625,0.10264438191652298,0.0050335006551817055,0.011922821777500212
1638753853414910700,7.63991064453125,0.08828852430582046,-0.0026110592812299727,0.025008842115476725
1638753853424931800,7.649931884765625,0.10146306317746638,0.006323978857137262,0.012903978301957249
1638753853434951700,7.65995166015625,0.10461188259720802,0.01572038742955774,0.016506825099512935
1638753853444972800,7.669972900390625,0.09458791671097277,0.015497428861260413,0.015341142321005462
1638753853454993000,7.679992919921875,0.10148995118439197,0.011214417779818176,0.009703282564505934
1638753853465013800,7.690013671875,0.09176701407134533,0.022429675809852778,0.011852313824556768
1638753853475033900,7.700033935546875,0.09206745832264422,0.025259492408297956,0.006290989902988076
1638753853485054700,7.7100546875,0.10014905796945095,0.020013262317888438,0.00042918519750237465
1638753853495074800,7.72007470703125,0.09626783262193202,0.016337934806011617,-0.001096782260760665
1638753853505095700,7.730095703125,0.0956762964695692,0.01350285751055926,0.0016842632925137876
1638753853515115800,7.74011572265625,0.09598901568055153,0.01354775609821081,0.011157207699865102
1638753853525137400,7.750137451171875,0.08373685235083103,0.0010861147362738847,0.013545491075888275
1638753853535157500,7.760157470703125,0.10021160181164741,-0.0029985242288559674,0.015435104214772582
1638753853545178400,7.770178466796875,0.10292144529223442,-0.004533551776409149,0.018638941757380963
1638753853555198500,7.780198486328125,0.10143617517054081,-0.00022869418933987615,0.015534911327436566
1638753853565218600,7.790218505859375,0.10085106875896453,0.002935980386659503,0.02233863652553409
1638753853575239400,7.800239501953125,0.09202654179036616,0.004284326255694032,0.018359211500547826
1638753853585259500,7.810259521484375,0.0987608184814453,0.005488733609393239,0.013703129323013126
1638753853595280400,7.8202802734375,0.10250701927244663,0.006589972849562763,0.011267353543452917
1638753853605300500,7.830300537109375,0.10385726483762264,0.01365819420274347,0.009177176331169903
1638753853615321300,7.8403212890625,0.09577917232215404,0.011283099101856351,0.01538216845113784
1638753853625341400,7.850341552734375,0.09816694424152374,0.006408259607106447,0.007841324617527425
1638753853635362300,7.8603623046875,0.09682079032957554,0.004808934651687741,0.004185907382518053
1638753853645382400,7.87038232421875,0.09368424586951732,0.005838716090843081,0.0058384603625163435
1638753853655403300,7.8804033203125,0.10311784464716911,0.00366856897752732,0.0001949380502104759
1638753853665423400,7.89042333984375,0.10492343276441096,0.00870586902499199,0.0040315936036407945
1638753853675444500,7.900444580078125,0.08921966767609119,0.016054405156895518,0.003950345060974359
1638753853685464300,7.91046435546875,0.09042261372506619,0.005589928961545229,0.003780139593221247
1638753853695485400,7.9204853515625,0.10165829348862171,0.005911890924908221,0.0031172552376985546
1638753853705505300,7.93050537109375,0.09342939432561397,0.014443170567974447,0.015638262104056774
1638753853715526400,7.9405263671875,0.10435820009708403,0.017141615871712566,0.00636818332504481
1638753853725546200,7.950546142578125,0.09478431606590747,0.009078903588466346,-0.0017997794309630988
1638753853735567400,7.9605673828125,0.10062193617820739,0.016361863670870662,0.004768529576063156
1638753853745587500,7.97058740234375,0.10002104767560958,0.017621216082200408,0.005063895793445408
1638753853755608300,7.9806083984375,0.10136895515322684,0.010264715839549899,0.000567534222267568
1638753853765628400,7.99062841796875,0.10885258890688419,0.010697956157661974,0.0006797624250873922
1638753853775649300,8.000649169921875,0.10346505064964294,0.010354987938888371,0.009289404533989727
1638753853785669400,8.01066943359375,0.10451894361674785,0.0028048648202791807,0.009326777402311562
1638753853795689500,8.020689453125,0.09689677817523479,0.005075988090038299,0.016978716927580535
1638753853805710300,8.03071044921875,0.10198387218117713,0.0011743410089984536,0.014751944256201386
1638753853815730400,8.04073046875,0.11065934606790542,-0.0007598784565925597,0.015603044660203158
1638753853825751300,8.050751220703125,0.10423018980324268,-0.0006969692882150411,0.02378372076731175
1638753853835771400,8.060771484375,0.10243512308001518,0.004085040823929012,0.004500051365606487
1638753853845792300,8.070792236328124,0.10183540362119674,0.0064092094551771875,0.007748276039212942
1638753853855812400,8.080812255859374,0.09690320791602135,0.008730345879122614,0.009455335685424506
1638753853865833200,8.090833251953125,0.10063947183489799,0.00718267804570496,0.003351648515462875
1638753853875853300,8.100853271484375,0.09884966580867767,0.009355272844433785,0.012071107674390076
1638753853885874400,8.11087451171875,0.09346505016088485,0.00883650966733694,0.010412417214550078
1638753853895894300,8.120894287109374,0.09616144963800907,0.009700725281238555,0.008263787813298404
1638753853905915400,8.130915283203125,0.09361761037409305,0.011857355325855313,-0.0005049173148348928
1638753853915935200,8.140935302734375,0.09706219787001609,0.0077263930009678,0.005028313023410737
1638753853925956600,8.15095654296875,0.09645955580174922,0.005904255607724189,0.004719320139475167
1638753853935976400,8.1609765625,0.09077215781509876,0.013116598139330743,0.010704532028920948
1638753853945997600,8.17099755859375,0.10109949056208133,0.004920395669527351,0.014658932210505007
1638753853956017400,8.181017333984375,0.1049959134787321,0.007540478507429361,0.011723974737152457
1638753853966038500,8.19103857421875,0.09318389513194561,0.009782083421759307,0.01701123095769435
1638753853976058400,8.201058349609376,0.09574059387743472,0.009264270092733205,0.018086458973772822
1638753853986079500,8.21107958984375,0.09723989252448081,0.007816007513180375,0.0080970164116472
1638753853996099600,8.221099609375,0.09709142396450042,-0.0015488003445789217,0.0039485914953053
1638753854006120400,8.231120361328125,0.10203706367313861,0.01186495411042124,0.004547945627942681
1638753854016140500,8.241140625,0.10175064794719219,0.012531309064663945,0.008030307850986719
1638753854026160400,8.251160400390624,0.10444587838053702,0.005777414357662201,0.01979501645732671
1638753854036181500,8.261181396484375,0.10743921497762203,0.013004004610329866,0.010004603598639368
1638753854046201300,8.271201416015625,0.09592822540402411,0.011622450591437518,0.013916041421331465
1638753854056222500,8.281222412109376,0.0921907924413681,0.013740356060862541,0.014984218642115592
1638753854066242600,8.29124267578125,0.10028115991652012,0.014275120524689554,0.006556362840905786
1638753854076263400,8.301263427734375,0.09294716376662254,0.017314013296552,0.00012081336807459592
1638753854086283500,8.311283447265625,0.10057342086136341,0.01773479599189013,0.010315459646098315
1638753854096304400,8.321304443359375,0.09668927290439605,0.014674093247018754,0.010806238837726414
1638753854106324500,8.331324462890626,0.09520809443593024,0.018916991513781248,-0.0022296587482094764
1638753854116345300,8.341345458984375,0.08997896161079406,0.007972586314380168,-0.0037806510498747227
1638753854126365400,8.351365478515625,0.09357903192937374,0.012959982805512844,0.0034036709636449812
1638753854136386300,8.36138623046875,0.09270575622618198,0.009616919455304742,0.0019005729243159292
1638753854146406400,8.371406494140626,0.10259878920912742,0.00546308771148324,0.002452434653416276
1638753854156427300,8.38142724609375,0.09498305350840092,0.013775573504716157,0.01002736341971904
1638753854166447400,8.391447265625,0.098438746920228,0.015568192542530595,0.003655855626426637
1638753854176468500,8.401468505859375,0.09082184217572212,0.02567742555942386,0.001365516199544072
1638753854186488300,8.41148828125,0.08515665602087974,0.052294433523900806,-0.0033959625812247395
1638753854196509400,8.421509521484374,0.0794938079535961,0.06257679461799562,-0.00775967421606183
1638753854206529300,8.431529296875,0.08176642906069755,0.07150832562502474,-0.005984006313048303
1638753854216550400,8.44155029296875,0.08806991311907768,0.08170479853395372,-0.002511471364274621
1638753854226570200,8.4515703125,0.0955716670513153,0.06234561621062457,-0.0029154855879023668
1638753854236591400,8.46159130859375,0.09425181662440299,0.03951316828615963,0.004464468595571816
1638753854246611500,8.471611572265624,0.10280746352374553,0.034337628811784086,0.0015289631329476832
1638753854256632300,8.48163232421875,0.10147650718092918,0.012091273679584263,-0.01412124513722956
1638753854266652400,8.49165234375,0.09626081835925579,-0.002814728627167642,-0.013595577295310794
1638753854276672300,8.50167236328125,0.10392799198627471,0.009454495435208082,-0.012506174623407423
1638753854286693400,8.511693359375,0.09873626856207847,0.020287622279860078,-0.021611052903346716
1638753854296714200,8.52171435546875,0.1004296284765005,0.031195567926391957,-0.005116831557080149
1638753854306734300,8.531734375,0.1052484269350767,0.04598744233418256,0.020051585034281016
1638753854316754400,8.54175439453125,0.14205518580675125,0.06217373024243861,0.06704418582301587
1638753854326775300,8.551775390625,0.18705343444049358,0.08269801082238555,0.10747066956181078
1638753854336795400,8.56179541015625,0.20996844608187673,0.0840668149575591,0.10662362427841872
1638753854346816300,8.571816162109375,0.20529227096438407,0.07153028172850609,0.09195954096876084
1638753854356836400,8.58183642578125,0.1995043352127075,0.07039459222946316,0.06445636128690094
1638753854366857200,8.591857177734376,0.1894756931513548,0.07144311490170657,0.0485030784169212
1638753854376877300,8.601877197265624,0.15159282948076724,0.10366108467839658,0.03972918565701693
1638753854386898200,8.611898193359375,0.11594283942878246,0.10350224085487425,0.04476560892164707
1638753854396918300,8.621918212890625,0.1003296752333641,0.08207615259699523,0.10015534157976508
1638753854406939400,8.631939453125,0.1289601419121027,0.08922266335077583,0.16518226929623633
1638753854416959200,8.641959228515624,0.18560206658840178,0.11158592286091297,0.18664390379153192
1638753854426980600,8.651980712890625,0.23053017259538172,0.1446039569741115,0.17238292139004915
1638753854437000400,8.66200048828125,0.240242588314414,0.13911007226556538,0.1279185604372993
1638753854447021600,8.672021484375,0.26638474530875683,0.10026519516240805,0.0927274931339547
1638753854457041400,8.68204150390625,0.2726180867403746,0.05472768855281174,0.04935498253852129
1638753854467062500,8.6920625,0.25464111602306366,0.01951451901551336,-0.0017913403961807488
1638753854477082400,8.702082275390625,0.24261457814276216,0.0774879845565185,-0.01934756495077163
1638753854487103500,8.712103515625,0.19469313553869724,0.13525789034944027,-0.044324879416823386
1638753854497123600,8.72212353515625,0.10864157650470734,0.1676994762815535,-0.039395167929679155
1638753854507144400,8.73214453125,0.03526712821424007,0.10071056430973112,-0.03701236444637179
1638753854517164500,8.74216455078125,0.018516484421491623,0.005377784048207104,-0.006696428898721933
1638753854527188000,8.75218798828125,0.04846972413659095,-0.11504819214399903,0.03631137657016516
1638753854537208000,8.7622080078125,0.07444529239237307,-0.20361564298905432,0.039560295363515616
1638753854547229000,8.77222900390625,0.10999883633255958,-0.2451834422500804,0.010122384759411214
1638753854557249000,8.7822490234375,0.09422317505180836,-0.26056210356988013,-0.0410237920448184
1638753854567269000,8.79226904296875,0.03467208493053913,-0.24289054553993045,-0.06232508487924933
1638753854577290000,8.8022900390625,-0.03512275130748749,-0.20703853010982273,-0.0853272268148139
1638753854587310000,8.81231005859375,-0.06199029996693134,-0.1951757314238697,-0.10919990450721233
1638753854597331000,8.8223310546875,-0.05675649096667766,-0.20493483582884073,-0.07149049770738929
1638753854607351000,8.83235107421875,-0.02829845824539661,-0.21563677404187617,-0.07705635167360306
1638753854617372200,8.8423720703125,0.007518120545148849,-0.1777144551437348,-0.07449855694957078
1638753854627392000,8.85239208984375,0.05904781677424907,-0.1328580261334777,-0.10085852141305804
1638753854637413400,8.862413330078125,0.06916004546582698,-0.08877937656268477,-0.11491999918706715
1638753854647433000,8.872432861328125,0.044783144578337666,-0.0968826765846461,-0.08990341215655206
1638753854657454300,8.882454345703126,0.035759295645356175,-0.12741875768899916,-0.04523812180422246
1638753854667474000,8.892473876953124,0.04987257667183876,-0.14709763695336878,-0.021399492511898276
1638753854677495300,8.902495361328125,0.035244331860542294,-0.13226700143776834,-0.024720088301971553
1638753854687515100,8.91251513671875,0.028629882156848904,-0.1099254057701677,-0.023780177103355525
1638753854697536300,8.922536376953126,0.02432487843930721,-0.07505787133276462,-0.02001929019987583
1638753854707556400,8.932556396484374,0.05516483786106109,-0.024482334023341535,0.018460662581026552
1638753854717577200,8.9425771484375,0.11811901442408561,-0.03156067491173744,0.028934418061375616
1638753854727597300,8.952597412109375,0.1505184782475233,-0.06526983309425413,0.04967135501131415
1638753854737618200,8.9626181640625,0.15778116272687912,-0.06488185668997466,0.05015716576687991
1638753854747638300,8.97263818359375,0.1432154617577791,-0.06896393837183713,-0.0035359921064227816
1638753854757659100,8.9826591796875,0.09761398653388023,-0.06366670874655246,-0.03199680130667984
1638753854767679200,8.99267919921875,0.0630120442301035,-0.025108064706251022,-0.03481222405359149
1638753854777700000,9.0027001953125,0.04293488636314869,-0.024372005516663194,-0.03047879795916378
1638753854787720200,9.01272021484375,0.05802548798918724,-0.03979256974942982,-0.05463664926849305
1638753854797741000,9.022740966796874,0.08552958098649978,-0.046142011841386554,-0.07057780330926179
1638753854807761200,9.03276123046875,0.10725099892914294,-0.030895781262218952,-0.061589756342023606
1638753854817782300,9.0427822265625,0.0944429552823305,-0.0134882809959352,-0.07728643410243094
1638753854827802000,9.052802001953125,0.09206102858185768,-0.03164228878058493,-0.07649689115993678
1638753854837822200,9.062822265625,0.11989654549062251,0.038391251584142444,0.015198007523268461
1638753854847843000,9.072843017578125,0.15243337195813655,0.06139635266177356,0.05592807731851935
1638753854857863200,9.08286328125,0.16106149957180022,0.02978606645464897,0.10126965949721634
1638753854867884000,9.092884033203125,0.1762596532255411,0.041587271146476264,0.10111498039215802
1638753854877904100,9.102904052734376,0.1880161419928074,-0.007150090950354933,0.10083104888424277
1638753854887925200,9.11292529296875,0.1837666678547859,-0.06068396660871803,0.10034626104198395
1638753854897945000,9.122945068359375,0.17166881830394268,-0.008655015620589256,0.047759310844913125
1638753854907966200,9.13296630859375,0.1632446888297796,0.12305961263142526,0.004668137941509485
1638753854917986000,9.142986083984376,0.14573533562421798,0.023099282167106865,-0.09044109922982752
1638753854928007200,9.153007080078124,0.11707330476343632,0.027387115554139016,-0.07653868447504937
1638753854938027300,9.16302734375,0.1107429326981306,-0.002781812738254666,-0.05799808852560818
1638753854948048100,9.173048095703125,0.14560732533037662,-0.004573518460616469,-0.0024998539917171
1638753854958068200,9.183068115234375,0.18130641522109509,-0.0008597586344927548,0.0066037821792066095
1638753854968089000,9.193089111328124,0.20904431697428225,-0.008287424417212605,0.009525660975277423
1638753854978109200,9.203109130859374,0.18994389518499374,0.06151362236589193,0.0732416887562722
1638753854988130000,9.213130126953125,0.12948913422226904,0.07514467283338308,0.0209689190749079
1638753854998150100,9.223150146484375,0.013313070559501648,0.05907375493310391,-0.05738339069336652
1638753855008171000,9.2331708984375,-0.07231880175769329,0.036985184178501364,-0.10933810740150511
1638753855018191000,9.243191162109374,-0.060571665340662,0.02351860355772078,-0.06451163513809442
1638753855028212000,9.2532119140625,0.01575344944894314,-0.008750292688608169,-0.041607875543087716
1638753855038232000,9.263232177734375,0.08474106095731258,0.004804185411334038,0.01841433922126889
1638753855048253200,9.273253173828126,0.17679565979838371,-0.03090484135150909,0.024796660669520496
1638753855058273000,9.28327294921875,0.21225041953921317,-0.024008359836041927,0.03840060393437743
1638753855068294100,9.293294189453125,0.18823650674521922,-0.01942256641574204,-0.06449724128656088
1638753855078314000,9.30331396484375,0.10327391199171543,0.0015941373236477373,-0.1298215079817921
1638753855088335000,9.313335205078126,0.007616904744505882,0.023173808708041903,-0.13173399053961038
1638753855098355000,9.32335498046875,-0.007181435936689376,0.03130487351976335,-0.060401423340290784
1638753855108376000,9.3333759765625,-0.005253098222613334,0.024829101634398103,-0.04384593679346144
1638753855118396200,9.343396240234375,0.005355389553308487,0.013935586372017859,-0.03201718650758266
1638753855128417300,9.353417236328125,0.0548901125729084,-0.07476699862740933,-0.04922134622149169
1638753855138437000,9.36343701171875,0.11666998465955257,-0.04076002654209733,-0.03472381511777639
1638753855148458200,9.373458251953124,0.09140753310918807,-0.034320056622475385,-0.09759411278963089
1638753855158478300,9.383478271484375,0.019972528448700903,-0.02906104011572897,-0.09693433370664715
1638753855168498000,9.393497802734375,-0.020620178702473638,-0.03230075268931687,-0.10667677923776209
1638753855178519300,9.403519287109376,-0.016472411373257636,-0.03323766821324825,-0.07177556172646582
1638753855188539100,9.4135390625,0.022270868518948553,-0.03526617836616933,-0.05281469453833997
1638753855198560300,9.423560302734375,0.06001695406734943,-0.04806815759837627,-0.04575206267572939
1638753855208580400,9.433580322265625,0.07293371878564357,-0.05018251940384507,-0.00480973836928606
1638753855218601200,9.443601318359375,0.09384966556429862,-0.027881548007577656,0.009535232521221041
1638753855228621300,9.453621337890626,0.09645254153907298,0.0002430880408734083,0.036287557303160425
1638753855238642200,9.46364208984375,0.07245967153310776,0.005579188371822238,0.038229046759754415
1638753855248662300,9.473662353515625,0.05999298866987228,0.041749402905628084,0.047081265452876685
1638753855258683100,9.48368310546875,0.08966916500926017,0.06003741233348846,0.04703180028796196
1638753855268703200,9.493703125,0.13099369356632232,0.03318959128782153,0.03485423656441271
1638753855278724000,9.50372412109375,0.14286533314585684,-0.0029210020132362843,-0.06734810067303479
1638753855288744200,9.513744140625,0.15635317575037477,0.03177344087958336,-0.04165032644532621
1638753855298765000,9.52376513671875,0.172285488897562,0.10309636346772312,0.035891324527189135
1638753855308785200,9.53378515625,0.16886369775533674,0.06751826960816978,-0.019274024790525434
1638753855318806300,9.54380615234375,0.1690524983257055,0.0638020255640149,-0.030201880713924763
1638753855328826000,9.553826171875,0.17044482946693895,0.07861381024867296,-0.01114376369640231
1638753855338847200,9.56384716796875,0.17656418913006783,0.05690919731035828,0.004454056799411773
1638753855348867000,9.5738671875,0.17552081755697727,0.03972235405743122,-0.0025075258415192363
1638753855358888200,9.58388818359375,0.16395722101330756,0.03585596095286309,0.012328662632033228
1638753855368908300,9.593908203125,0.13803250616192816,0.017785028341785074,0.0070376435518264766
1638753855378929200,9.60392919921875,0.12535422637462615,-0.023920608487352727,-0.005034048644453287
1638753855388949200,9.61394921875,0.13321253865957258,-0.0021189649153500792,0.0038603286899626253
1638753855398970000,9.62397021484375,0.10830255380868911,-0.03494819845817983,-0.05336867515929043
1638753855408990200,9.633990234375,0.08662497500777244,-0.029382892481237648,-0.08489559393189847
1638753855419011000,9.644010986328125,0.05367196895480156,-0.019012743505835532,-0.11773381449878215
1638753855429031200,9.65403125,0.029684359645843504,-0.03047156450077891,-0.11555559367686509
1638753855439052000,9.664052001953126,0.013962474378943442,-0.026369828270375727,-0.12647102851010858
1638753855449072000,9.674072021484376,0.017482465198636055,-0.016050751895084977,-0.11713175695240496
1638753855459093000,9.684093017578125,0.039866730964183805,-0.007819733840227126,-0.08181523663848637
1638753855469113000,9.694113037109375,0.055878539088368415,0.01170921555943787,-0.04558773895949125
1638753855479134200,9.70413427734375,0.09516893146932125,0.0391517876278609,0.00673522653914988
1638753855489154000,9.714154052734376,0.12421382416784763,0.06699651075638831,0.04104461563713848
1638753855499174100,9.724174072265624,0.1393611244171858,0.05534801240824162,0.04526084509268403
1638753855509195000,9.734195068359375,0.13023966032862663,0.0406255134422332,0.012554580342397093
1638753855519215000,9.744215087890625,0.09900865576267241,0.03099968002811074,-0.007237184711918234
1638753855529233000,9.75423291015625,0.07352583945989609,0.020666721257939932,-0.041211350506171585
1638753855539253000,9.7642529296875,0.05885550907254219,0.030756738117709754,-0.09708864748552441
1638753855549273900,9.77427392578125,0.04145136980712413,0.010403978179767728,-0.11539265820011496
1638753855559294000,9.7842939453125,0.06608662936985492,0.01541552273146808,-0.05316759962923825
1638753855569315000,9.794315185546875,0.1428670867115259,0.014590689279884099,0.017230682394653557
1638753855579335000,9.8043349609375,0.23578443986177444,0.026990152125805616,0.03923340149670839
1638753855589356000,9.81435595703125,0.2937000377357006,0.030167028596252202,0.04524418621882796
1638753855599376000,9.8243759765625,0.30310324137508865,0.03274053234606981,0.062264879124611615
1638753855609397000,9.83439697265625,0.26420389413833617,0.06305588337182998,0.09436419095769524
1638753855619416800,9.844416748046875,0.1816238106071949,0.04298953915983438,0.05974157119207084
1638753855629438000,9.85443798828125,0.09105039023458956,0.0313943053688854,0.04730725622847676
1638753855639458000,9.8644580078125,0.028435236367583272,0.02433539983332157,0.022169819297268984
1638753855649479000,9.87447900390625,0.003370353215932846,-0.00261171686835587,-0.011526041012257337
1638753855659499000,9.8844990234375,0.01925122843682766,-0.020409531626477836,-0.025472879430651664
1638753855669520000,9.894519775390625,0.048182723888754844,-0.05255955073349178,-0.041535467894002795
1638753855679540000,9.9045400390625,0.06988835974037647,-0.07826660424619912,-0.054481677902489895
1638753855689560800,9.914560791015624,0.08610182791650295,-0.08658025908321142,-0.07916128806360065
1638753855699581000,9.924580810546875,0.06815057616233826,-0.06471789829991757,-0.08995163521245121
1638753855709601800,9.934601806640625,0.04564999054074287,-0.03408332525715232,-0.08009396580383181
1638753855719622000,9.944621826171876,0.026555998492240905,-0.023091391121596097,-0.07580825130864978
1638753855729642800,9.954642822265624,0.01266249769628048,-0.009489712879061698,-0.04363010208569467
1638753855739662800,9.964662841796875,0.00957154594361782,-0.01125818385630846,-0.02469415014311671
1638753855749684000,9.97468408203125,0.025024551141262053,-0.005213131538406014,-0.019554010775685308
1638753855759703800,9.984703857421875,0.03904430866539478,0.0066818158514797684,-0.02804265685342252
1638753855769725000,9.994724853515624,0.05067629427015781,0.01869754007682204,-0.007089958260953426
1638753855779744800,10.004744873046874,0.08279869471788406,0.019600407200679182,0.0029987434245646
1638753855789766000,10.014765869140625,0.10825053136050701,0.016050386568903924,-0.005104191271215677
1638753855799785700,10.02478564453125,0.09072364249825476,0.022290084676072,-0.010989742178469895
1638753855809806800,10.034806884765626,0.08386194003522396,0.008964519961178303,0.005829875197261572
1638753855819827000,10.044826904296874,0.11103168651163578,0.018804434517398477,0.023669848596677184
1638753855829848000,10.05484814453125,0.1540741249024868,0.04150076190680265,0.03431896064393222
1638753855839868000,10.064867919921875,0.19036065929234028,0.0482222521815449,0.02322225095964968
1638753855849887700,10.0748876953125,0.24610242025852203,0.0548867515720427,0.0030376871954649687
1638753855859908900,10.084908935546874,0.24267536841928958,0.04518398046419024,-0.026931407675892114
1638753855869930000,10.094929931640625,0.192964704310894,0.03644545127861201,-0.06473316893428564
1638753855879950000,10.1049501953125,0.14490940619409085,0.016287483260408044,-0.0656793637432158
1638753855889970000,10.114969970703125,0.09611351884305476,0.01522372648641467,-0.060917921495065086
1638753855899991000,10.124990966796876,0.0701134006679058,0.006940028396248817,-0.06571414279565214
1638753855910011100,10.13501123046875,0.05806757356524467,0.010460822933539747,-0.05178600907772779
1638753855920032000,10.145031982421875,0.0727846657037735,0.030555297261476516,-0.017736366894468666
1638753855930052000,10.155052001953125,0.08716448871195316,0.03520136950165033,0.00623370675779879
1638753855940073000,10.165072998046876,0.11122633230090141,0.007793503420427441,0.02337839136943221
1638753855950093000,10.175093017578124,0.12700024001598356,-0.023074439986795186,0.03420198320075869
1638753855960114000,10.185114013671875,0.12656944738328457,-0.04091485177762806,0.02943111553713679
1638753855970134000,10.195134033203125,0.11284487341344356,-0.040286563811451195,0.01881196023672819
1638753855980155000,10.20515478515625,0.08509645026624202,-0.039367110878974196,0.004932926357537508
1638753855990175000,10.215175048828126,0.07639291932880878,-0.03968436013460159,-0.004378507345169783
1638753856000196000,10.225196044921875,0.07108019987344741,-0.02886639432646334,-0.006268120484054088
1638753856010216000,10.2352158203125,0.06865794116258621,-0.015067805272340773,-0.02731741131879389
1638753856020237000,10.245237060546875,0.06466857926547527,0.0028545126482844353,-0.05572356772236526
1638753856030257000,10.2552568359375,0.049265842950344085,0.0026106208898127076,-0.06591163812913
1638753856040278000,10.265278076171874,0.0340805487781763,0.00859510212689638,-0.04986307819113135
1638753856050297900,10.2752978515625,0.04133154281973839,0.0072542089119553566,-0.02266037929318845
1638753856060319000,10.285319091796875,0.0584498508810997,0.01780789776071906,0.016483663419634104
1638753856070339000,10.295339111328126,0.11213526383936405,0.016467662132903932,0.03468962058722973
1638753856080360000,10.30535986328125,0.18576281010806558,0.014672814605385064,0.03263436855785549
1638753856090380000,10.315380126953125,0.1910825438261032,0.006399345648288726,0.00490296961069107
1638753856100401000,10.32540087890625,0.14841887561976908,-0.006128127491474151,-0.019182035658136008
1638753856110421000,10.3354208984375,0.10976795018613338,-0.019135200841724872,-0.017529665341228247
1638753856120441900,10.34544189453125,0.08065525294840335,-0.03148775580599904,-0.018824527457356452
1638753856130462000,10.3554619140625,0.0740478175073862,-0.03870075592473149,-0.026453049574419855
1638753856140482800,10.36548291015625,0.09325169967114925,-0.033328853628039355,-0.02379186754114926
1638753856150503000,10.3755029296875,0.10753332300186157,-0.020272826569527388,-0.01860935033671558
1638753856160523800,10.385523681640626,0.10891513274908066,-0.006707461749389767,0.0014086977541446686
1638753856170543900,10.3955439453125,0.13245558281242847,-0.0075758420817553995,0.016061054093390703
1638753856180565000,10.40556494140625,0.16013269428908825,0.023473010850325226,0.011131634867191313
1638753856190584800,10.415584716796875,0.14096037630736827,0.0316495222389698,-0.006724485949426889
1638753856200606000,10.42560595703125,0.12333178063631058,0.032905732845142484,-0.02262304295748472
1638753856210625800,10.435625732421874,0.08032441355884075,0.04309541068710387,-0.03465140746869146
1638753856220647000,10.44564697265625,0.019759762480854988,0.03336114846244454,-0.035598259864747524
1638753856230666800,10.455666748046875,0.00715162532031536,0.018730492498353124,-0.009746756380051375
1638753856240687900,10.46568798828125,0.045754035437107085,0.012208762579411267,0.017082506095618007
1638753856250708000,10.4757080078125,0.08547463592886924,0.011328911004960536,0.019803017100691794
1638753856260728800,10.485728759765625,0.09801321498453616,0.0013810790948569774,0.04208659897074103
1638753856270749000,10.4957490234375,0.11513269208967684,-0.0035996319271624088,0.03775799518190324
1638753856280768800,10.505768798828125,0.10663315929174423,-0.003624766368418932,0.014969459464401006
1638753856290790000,10.515789794921876,0.08502572311758995,0.004341682466119528,0.0032028876945376394
1638753856300810000,10.52581005859375,0.0661398208618164,0.0038604748204350467,-0.005071165784448385
1638753856310830800,10.535830810546875,0.06314414617717266,0.004132569760084152,-0.020420199150964616
1638753856320851000,10.545850830078125,0.06362813030183315,0.0006982113972306251,-0.03521656707078218
1638753856330871800,10.555871826171876,0.08329495380222797,0.001485270121693611,-0.041151071686297655
1638753856340892000,10.565891845703124,0.08954524636864662,0.00027845161519944665,-0.043845352271571755
1638753856350913000,10.5759130859375,0.10055413163900374,-0.013099062482640146,-0.05014467161148786
1638753856360932900,10.585932861328125,0.09481763381361961,-0.013571721495687961,-0.0538052399456501
1638753856370954000,10.5959541015625,0.08525193308889865,-0.02245060900002718,-0.04695055174529552
1638753856380974000,10.60597412109375,0.07839315323531627,-0.025856764181703327,-0.04076857517473399
1638753856390995000,10.615994873046875,0.0706447310656309,-0.021608970544114706,-0.029793007652088997
1638753856401015000,10.62601513671875,0.06676116763055324,-0.007903028209507465,-0.009146452399343252
1638753856411036000,10.636035888671875,0.07871054862141609,-0.01708433272652328,0.0017130875281989573
1638753856421056000,10.646055908203126,0.11888473809957503,-0.01092274135686457,0.021084946670010686
1638753856431077000,10.6560771484375,0.1491068578839302,-0.007822510319203137,0.026747137150168417
1638753856441097000,10.666096923828125,0.16293255414068697,-0.002631590612605214,0.02541654613353312
1638753856451118000,10.6761181640625,0.15803309166133403,0.006612842268496752,0.01915989689156413
1638753856461138000,10.686137939453126,0.1530804376900196,0.019438933028653262,0.014678440628573297
1638753856471159000,10.696158935546874,0.14404314475357533,0.025522929117456076,0.0056929509446024896
1638753856481179000,10.706178955078125,0.12225742940306662,0.03560432427935302,0.01335047996044159
1638753856491200000,10.716199951171875,0.13333587277829645,0.04057838636487722,0.02215593690238893
1638753856501220000,10.72622021484375,0.14329086508154867,0.043444443320482966,0.03561053482443094
1638753856511241000,10.736240966796874,0.17888064937889575,0.03808540050536394,0.04481134775951504
1638753856521261000,10.746260986328124,0.17374270196855068,0.03027881840765476,0.03202595433592796
1638753856531282000,10.756281982421875,0.13032149339318275,0.024227409414201973,0.01795000964514911
1638753856541302000,10.766302001953125,0.10975158357322215,0.01597030707001686,0.006163418000563979
1638753856551323000,10.776322998046876,0.11022972247898578,0.013087298979610204,0.0034277824915945527
1638753856561343000,10.786343017578124,0.10177695143222808,0.01486862943843007,-0.019532602661475537
1638753856571363800,10.79636376953125,0.08695464535355567,0.008431874389201403,-0.02659633050262928
1638753856581384000,10.806384033203125,0.0713116705417633,-0.01113755315132439,-0.025169220308959482
1638753856591404800,10.81640478515625,0.06287292802035808,0.00038527299053966996,-0.024151202372834087
1638753856601425000,10.8264248046875,0.05102350027263164,0.0005091916311532259,-0.031155235916003582
1638753856611446000,10.836446044921875,0.043700610038638114,-0.007875336484983562,-0.02128324572108686
1638753856621465900,10.8464658203125,0.0561842440366745,-0.013835048606991767,-0.02726042043454945
1638753856631487200,10.8564873046875,0.06196458100378513,-0.02168985376060009,-0.030283640713244676
1638753856641506800,10.8665068359375,0.07538403454720974,-0.005597454680874943,-0.03238017460107803
1638753856651528200,10.876528076171875,0.06519464896619319,-0.01763758269511163,-0.020549670749530194
1638753856661548000,10.886548095703125,0.08749649714529514,-0.009478022441267967,-0.025195085402578116
1638753856671569200,10.896569091796875,0.07397650583684444,0.008154518752545118,-0.0330347660522908
1638753856681589200,10.90658935546875,0.06380757852196693,0.011506313398480414,-0.02936089984513819
1638753856691610000,10.916610107421874,0.07142623683214187,0.017298559999093414,-0.01927000620253384
1638753856701630200,10.926630126953125,0.09217851748168468,0.006305164558812975,-0.008465630528330803
1638753856711651000,10.936651123046875,0.14042203164696693,0.0039747488498687745,0.009486644139140844
1638753856721671200,10.946671142578126,0.1505535495609045,-0.006023132747039198,0.02253682597875595
1638753856731692000,10.956692138671874,0.1131347962707281,-0.025346111245825885,0.042522579235211015
1638753856741712100,10.966712158203125,0.10410159498751163,-0.036038697108626366,0.04041705832332373
1638753856751733000,10.97673291015625,0.0934632965952158,-0.022065189879015085,0.0274471021130681
1638753856761753000,10.986753173828125,0.07267828271985054,0.006343231546878814,0.02056983675472438
1638753856771773200,10.996773193359376,0.08540157069265841,0.01591346231624484,0.026598084068298337
1638753856781794000,11.0067939453125,0.09501870934367179,0.017184359034895895,0.026877412466332316
1638753856791814100,11.016814208984375,0.049936289557814595,0.017434534403681753,0.04562310253381729
1638753856801835000,11.0268349609375,0.05297404981851577,0.003914616160467267,0.06306289763450622
1638753856811855000,11.036855224609376,0.08832476466298103,0.0065614043422043316,0.0631687691617757
1638753856821876000,11.0468759765625,0.11124971317648887,0.015252002732828259,0.04288542119823396
1638753856831896000,11.05689599609375,0.15056523999869822,0.004498261267319321,0.04533033013232052
1638753856841917000,11.0669169921875,0.19707973841428755,0.001850304041802883,0.019206366381794213
1638753856851937000,11.07693701171875,0.21293898632526395,0.03513721822425723,-0.049166547294333576
1638753856861958100,11.086958251953124,0.19758184271752832,0.0711793493989855,-0.09125672646164894
1638753856871978000,11.09697802734375,0.2054781489253044,0.09066358287408947,-0.09983984588980674
1638753856881999000,11.1069990234375,0.17072832258343695,0.10337912593185901,-0.08416092298179864
1638753856892019000,11.11701904296875,0.13342238201797008,0.09972966351360082,-0.004798705518618226
1638753856902040000,11.1270400390625,0.1339262398868799,0.09350742799788712,0.031566374000161886
1638753856912060000,11.137059814453124,0.14836802221536635,0.10917897131703794,0.008707257264479995
1638753856927089000,11.1520888671875,0.11145078870654106,0.0689927260749042,-0.01822510025948286
1638753856937109000,11.16210888671875,0.060223290294408795,0.03955737275406718,-0.028955460849404334
1638753856947129900,11.1721298828125,0.01911561935842037,0.018059899760410187,-0.03875175545960664
1638753856957150000,11.18214990234375,-0.02939969748556614,-0.009784311911463736,-0.03203209181576967
1638753856967171000,11.192171142578125,-0.009095160603523254,-0.03663074471764266,-0.03355082581564784
1638753856977191000,11.20219091796875,0.03640226972401142,-0.05580817726589739,-0.03015782237648964
1638753856987212000,11.2122119140625,0.07001403194665909,-0.07710296729430556,-0.025568156498670575
1638753856997231900,11.22223193359375,0.09569032499492168,-0.08139598831310868,-0.05368022532649338
1638753857007253000,11.2322529296875,0.12459142530858516,0.006016410745307803,-0.04060739326365292
1638753857017272800,11.24227294921875,0.09225859698057175,0.0635644174158573,0.0008249065168201923
1638753857027294000,11.2522939453125,0.03518704871535301,0.024663462743908165,0.032845746286213395
1638753857037314000,11.26231396484375,0.02295066747665405,0.0059369157683104275,0.042108956933021545
1638753857047335000,11.2723349609375,0.02165712053477764,0.020123700422421096,0.03316138810664415
1638753857057355000,11.28235498046875,0.040564650100469585,-0.011459551647305487,0.05761566507928073
1638753857067376000,11.292376220703124,0.09770634099245071,-0.05035305366516113,0.0382775620765984
1638753857077396000,11.30239599609375,0.1384451786160469,-0.03548106322586536,0.02195734559036791
1638753857087417000,11.3124169921875,0.11062427475452423,-0.0472075952462852,0.029549627350270745
1638753857097437000,11.32243701171875,0.09901157837212085,-0.07787577829770743,0.01863536156080663
1638753857107458000,11.3324580078125,0.11200140832662582,-0.07333879245519638,0.0051139089476317165
1638753857117478100,11.34247802734375,0.06658288845419884,-0.07890482908450067,-0.0024320494525134563
1638753857127499000,11.3524990234375,0.04460369635820389,-0.09371398342065512,-0.012031506316363811
1638753857137519000,11.36251904296875,0.04619534946382046,-0.0393651381175965,-0.010410554051026701
1638753857147540000,11.3725400390625,0.023592472511529922,-0.001389116270840168,-0.04055617453306913
1638753857157560000,11.38256005859375,0.004633505019545555,0.01037584806382656,-0.03730418699979782
1638753857167581200,11.392581298828125,0.03326280265450477,0.02326755140610039,0.008125146527588367
1638753857177601000,11.40260107421875,0.08838555493950843,0.02811871776431799,-0.0005984042845666408
1638753857187622100,11.4126220703125,0.06613456016480922,0.03270378053225577,-0.014935557194799184
1638753857197642000,11.42264208984375,0.020533669462800025,0.015381255135685204,-0.02976042055673897
1638753857207663000,11.4326630859375,0.010301029261946678,0.04330715374164283,-0.019834800478443503
1638753857217683200,11.44268310546875,0.04117255286574364,0.06559438887350261,-0.018717998342961072
1638753857227704000,11.4527041015625,0.08600070562958717,0.06490998680591582,-0.007146876079961657
1638753857237724200,11.46272412109375,0.15333412019014359,0.05381663812249898,0.01806362608745694
1638753857247745000,11.4727451171875,0.22781097676455972,0.051751522286236286,0.05707863559313118
1638753857257765000,11.48276513671875,0.2809872711569071,0.06585800824575126,0.05360043808855116
1638753857267786000,11.492785888671875,0.31575638672113415,0.07638108276054263,0.03675751290246844
1638753857277806000,11.50280615234375,0.3546972350120544,0.11398819822967052,0.024154709504172204
1638753857287827000,11.512826904296874,0.3182733379781246,0.14202939377836882,-0.004228869741410016
1638753857297847000,11.522846923828125,0.22960019826889036,0.13083952591791748,-0.027040859399735925
1638753857307868000,11.532867919921875,0.11496025813221931,0.14625760593265294,-0.02553133161962032
1638753857317888000,11.542887939453125,0.010461772781610488,0.14371245149448514,-0.05257942447774112
1638753857327909000,11.5529091796875,-0.05162906495034694,0.09174860163182019,-0.053042511944845314
1638753857337929000,11.562928955078124,-0.07356207981705665,0.07592325599044561,-0.005205240492895245
1638753857347949000,11.572948974609375,-0.04671148229241371,0.030103607971221205,0.03238295108005404
1638753857357970000,11.582969970703125,-0.026975100687146186,-0.07248911682330071,0.09808620715551078
1638753857367990000,11.592989990234376,-0.024165303963422775,-0.10755538870319724,0.07424618962369858
1638753857378011000,11.603010986328124,-0.04238134413361549,-0.10791983810141682,-0.010416837661340833
1638753857388032000,11.613031982421875,0.03561374969482422,-0.15887027313783764,-0.2396167845662683
1638753857398052000,11.623052001953125,0.13663842145502567,-0.09154942579790949,-0.3464334106661379
1638753857408072000,11.633072021484375,0.12588789485991,-0.01627228569127619,-0.36446854131147266
1638753857418093000,11.643093017578124,0.02136836672127247,-0.0004997662156820296,-0.3408205392204225
1638753857428113000,11.65311279296875,-0.02310673482120037,0.027910627971589563,-0.2553578129250556
1638753857438134000,11.663134033203125,-0.024337737920880315,0.06446333901695907,-0.1424539758659899
1638753857448153900,11.67315380859375,-0.00004734627306461334,0.01598031700737774,-0.06661364891864359
1638753857458175000,11.683175048828126,0.03976853128671646,-0.051752764395251866,-0.005495382545888424
1638753857468195000,11.693195068359374,0.049935120514035224,-0.10262458123750984,0.02887596587240696
1638753857478216000,11.7032158203125,0.06838613848388195,-0.17602694044820963,0.09939414794892072
1638753857488236000,11.713236083984375,0.08230302015542984,-0.23956293548718094,0.13371310859285293
1638753857498257000,11.7232568359375,0.06447802512943744,-0.24398418599553404,0.10062449346147477
1638753857508277000,11.733277099609374,0.04312310241162777,-0.25371632932834326,0.06435995170772076
1638753857518297900,11.7432978515625,0.01271685823202133,-0.23611469472944735,0.024902313001081346
1638753857528318000,11.75331787109375,0.019672668719291686,-0.18101269297152756,-0.009946078344434499
1638753857538339300,11.76333935546875,0.0790630153208971,-0.1324794751446694,-0.04176686549708247
1638753857548359200,11.773359130859374,0.11831307569146156,-0.08164082991965114,-0.05320683566108346
1638753857558380300,11.78338037109375,0.12885200536251068,-0.042623409261181945,-0.022888269764930008
1638753857568400400,11.793400390625,0.1416045194298029,0.0011960048515349626,0.0045815556365996594
1638753857578421200,11.803421142578125,0.1242453883498907,0.01865264148917049,0.055167687405273315
1638753857588441300,11.81344140625,0.09676233814060688,0.06241999662108719,0.13875117582529783
1638753857598462500,11.82346240234375,0.12101765847504138,0.06721811761781572,0.19981646990180013
1638753857608482300,11.833482421875,0.12832652018368243,0.07249339113961904,0.2847895860493183
1638753857618503400,11.84350341796875,0.10668342817425727,0.04978866124805063,0.33665172910317775
1638753857628523300,11.853523193359376,0.11138298416733741,0.02653787831366062,0.3013481413360685
1638753857638544400,11.86354443359375,0.13006781089305877,0.050523953252658245,0.2888061282142997
1638753857648564200,11.873564208984375,0.17770985203385353,0.08762406904771923,0.2592907684598118
1638753857658585300,11.88358544921875,0.21524200257062912,0.14901870467644185,0.18515300764665008
1638753857668605400,11.89360546875,0.1955699183732271,0.14836707236729563,0.06595609832536428
1638753857678626300,11.903626220703124,0.14589607914388178,0.14173943438846617,0.041200463785976166
1638753857688646400,11.913646484375,0.13314765672981738,0.11103249022923409,0.01787749239820987
1638753857698667300,11.923667236328125,0.11406009442210197,0.10578742918260395,-0.018684936323575676
1638753857708687400,11.933687255859375,0.1394727680981159,0.147554148549214,-0.01761686870064586
1638753857718708200,11.943708251953124,0.18142098151147365,0.1800217457054183,0.005449351447075605
1638753857728728300,11.953728271484374,0.1935048025369644,0.11318897414337843,0.032650625572912394
1638753857738749200,11.963749267578125,0.1500040989845991,-0.06960800842903554,0.03157097711004317
1638753857748769300,11.973769287109375,0.12633563862740993,-0.11019337252397089,0.14021755858343093
1638753857758790100,11.9837900390625,0.09647942954599857,-0.07879545042589306,0.1545244259532541
1638753857768810200,11.993810302734374,0.0895633665472269,-0.027421200486831367,0.1656877711329609
1638753857778831400,12.003831298828125,0.10875322018563746,0.015200199480354785,0.10970504101775586
1638753857788851200,12.013851318359375,0.11774375137090683,0.043464061336405575,0.1349266856336966
1638753857798872300,12.023872314453126,0.14947393763065336,0.01741743713840842,0.08575513337068259
1638753857808892200,12.03389208984375,0.16079495759010315,0.06627320145051926,0.0797894298993051
1638753857818913300,12.043913330078125,0.1371253281891346,0.11260068939402698,0.06674688337687402
1638753857828933000,12.05393310546875,0.1149865616172552,0.15682795365527272,0.13679960336610675
1638753857838954200,12.063954345703126,0.07961305041909217,0.17631193140204995,0.23007526843473314
1638753857848974300,12.073974365234376,0.07826631198525429,0.09087543552648275,0.15964556835927068
1638753857858995200,12.0839951171875,0.13270634270310402,0.06416939757168293,0.03713354314062744
1638753857869015300,12.094015380859375,0.13216039925813675,0.1393371590197086,-0.016515008405968545
1638753857879036200,12.1040361328125,0.09765607210993767,0.14306538576260208,-0.016641301666758954
1638753857889056300,12.11405615234375,0.14884674564301967,0.01884571637585759,-0.3287843201963231
1638753857899077000,12.1240771484375,0.14704349561333654,-0.05239077003784477,-0.36166448020879177
1638753857909097200,12.13409716796875,0.1388029060125351,-0.09714468852169811,-0.1670906236682087
1638753857919118000,12.1441181640625,0.12858721694648265,-0.1356031966557726,0.05214534390941262
1638753857929138200,12.15413818359375,0.1601081443697214,-0.24859281230214983,0.24373777348641304
1638753857939159000,12.164158935546874,0.1602127737879753,-0.2562215536149218,0.33484581219237297
1638753857949179100,12.17417919921875,0.20433540863096714,-0.28105463730469343,0.44577754546087234
1638753857959200300,12.1842001953125,0.1433855576276779,-0.30880083196219055,0.7483126680918037
1638753857969220000,12.19422021484375,0.11289514229595661,-0.3176314233453944,0.8982217092040926
1638753857979241500,12.204241455078124,0.02207446916401386,-0.12497308156993239,1.1916292667992412
1638753857989261300,12.21426123046875,0.004143091154098511,-0.07208700229581445,0.9551553833685815
1638753857999282400,12.224282470703125,0.03723462889492511,-0.18425397644769398,0.5859042474230751
