time,seconds_elapsed,z,y,x
1638753845829431600,0.054431640625,-0.987945556640625,-0.0338134765625,0.0154266357421875
1638753845839451600,0.06445166015625,-0.9864044189453125,-0.033905029296875,0.0138092041015625
1638753845849471500,0.074471435546875,-0.9829559326171875,-0.0341949462890625,0.0111236572265625
1638753845859492600,0.08449267578125,-0.9821319580078125,-0.033355712890625,0.01031494140625
1638753845869512400,0.094512451171875,-0.9854278564453125,-0.03369140625,0.0113677978515625
1638753845879533600,0.104533447265625,-0.9779815673828125,-0.0326995849609375,0.0111083984375
1638753845889553700,0.1145537109375,-0.96063232421875,-0.036895751953125,0.0034942626953125
1638753845899573500,0.124573486328125,-0.9875640869140625,-0.035125732421875,0.0113983154296875
1638753845909594600,0.1345947265625,-1.0044097900390625,-0.0350341796875,0.0211639404296875
1638753845919614500,0.144614501953125,-1.0029296875,-0.0356903076171875,0.0182037353515625
1638753845929635600,0.154635498046875,-0.992279052734375,-0.0350494384765625,0.0124359130859375
1638753845939655400,0.164655517578125,-0.9894561767578125,-0.035736083984375,0.0111846923828125
1638753845949676500,0.174676513671875,-0.9913482666015625,-0.034149169921875,0.01043701171875
1638753845959696600,0.184696533203125,-0.9862823486328125,-0.0334014892578125,0.0091552734375
1638753845969716500,0.194716552734375,-0.991546630859375,-0.0384063720703125,0.00555419921875
1638753845979737600,0.204737548828125,-0.9979705810546875,-0.0430908203125,0.0230712890625
1638753845989757400,0.21475732421875,-0.98736572265625,-0.0440216064453125,0.017242431640625
1638753845999778600,0.224778564453125,-0.98175048828125,-0.041168212890625,0.009002685546875
1638753846009798400,0.23479833984375,-0.98236083984375,-0.0408935546875,0.00628662109375
1638753846019819500,0.244819580078125,-0.9849853515625,-0.0411376953125,0.00677490234375
1638753846029839600,0.254839599609375,-0.9882659912109375,-0.0374298095703125,0.006195068359375
1638753846039859500,0.264859375,-0.989959716796875,-0.0352630615234375,0.0054168701171875
1638753846049880600,0.274880615234375,-0.9905242919921875,-0.034637451171875,0.00396728515625
1638753846059900400,0.284900390625,-0.989715576171875,-0.0355377197265625,0.0020751953125
1638753846069921500,0.294921630859375,-0.9884490966796875,-0.0354766845703125,0.00225830078125
1638753846079941600,0.304941650390625,-0.988433837890625,-0.03741455078125,0.0031585693359375
1638753846089961500,0.31496142578125,-0.988616943359375,-0.0377655029296875,0.003387451171875
1638753846099982600,0.324982666015625,-0.9893951416015625,-0.0375518798828125,0.0042877197265625
1638753846110002400,0.33500244140625,-0.9883880615234375,-0.0384979248046875,0.00506591796875
1638753846120023600,0.3450234375,-0.9897308349609375,-0.0385894775390625,0.0050811767578125
1638753846130043400,0.35504345703125,-0.9894866943359375,-0.0384521484375,0.00518798828125
1638753846140064500,0.365064453125,-0.9883880615234375,-0.0372314453125,0.00433349609375
1638753846150084600,0.375084716796875,-0.988128662109375,-0.037109375,0.003814697265625
1638753846160104400,0.3851044921875,-0.9887237548828125,-0.037872314453125,0.0035552978515625
1638753846170125600,0.39512548828125,-0.9885711669921875,-0.03759765625,0.003631591796875
1638753846180145400,0.4051455078125,-0.9889068603515625,-0.0377197265625,0.004150390625
1638753846190166500,0.41516650390625,-0.9893951416015625,-0.0380401611328125,0.004638671875
1638753846200186400,0.425186279296875,-0.98883056640625,-0.0387420654296875,0.004669189453125
1638753846210207500,0.43520751953125,-0.9891204833984375,-0.0394439697265625,0.0044097900390625
1638753846220227600,0.4452275390625,-0.988739013671875,-0.0399169921875,0.0054779052734375
1638753846230247400,0.455247314453125,-0.987945556640625,-0.04095458984375,0.0065765380859375
1638753846240268500,0.4652685546875,-0.9881591796875,-0.0440216064453125,0.0012054443359375
1638753846250288400,0.475288330078125,-0.995941162109375,-0.0417938232421875,0.0003814697265625
1638753846260309500,0.4853095703125,-0.989837646484375,-0.0411224365234375,0.0011749267578125
1638753846270329600,0.49532958984375,-0.97515869140625,-0.040924072265625,0.002349853515625
1638753846280350500,0.5053505859375,-0.961578369140625,-0.042205810546875,0.008148193359375
1638753846290370600,0.51537060546875,-0.9738311767578125,-0.0413055419921875,0.015167236328125
1638753846300390400,0.525390380859375,-0.9969940185546875,-0.02716064453125,0.014923095703125
1638753846310411500,0.53541162109375,-1.00390625,-0.0229034423828125,0.0072784423828125
1638753846320431400,0.545431396484375,-1.011322021484375,-0.0280303955078125,0.0058746337890625
1638753846330452500,0.555452392578125,-1.0098419189453125,-0.0330810546875,0.004638671875
1638753846340472600,0.56547265625,-0.9997711181640625,-0.0376434326171875,-0.00067138671875
1638753846350493700,0.57549365234375,-0.9890899658203125,-0.0385284423828125,-0.0028228759765625
1638753846360513500,0.585513427734375,-0.98577880859375,-0.0336456298828125,0.000244140625
1638753846370533400,0.595533447265625,-0.9843902587890625,-0.0290679931640625,0.0072479248046875
1638753846380554800,0.6055546875,-0.984710693359375,-0.039642333984375,0.01239013671875
1638753846390574300,0.61557421875,-0.9832916259765625,-0.0420074462890625,0.0137786865234375
1638753846400595700,0.625595703125,-0.9872589111328125,-0.0367584228515625,0.00836181640625
1638753846410615600,0.635615478515625,-0.991241455078125,-0.0392303466796875,0.006378173828125
1638753846420635400,0.645635498046875,-0.9906158447265625,-0.0425567626953125,0.003997802734375
1638753846430656800,0.65565673828125,-0.98480224609375,-0.0390777587890625,0.0023956298828125
1638753846440676400,0.66567626953125,-0.9822998046875,-0.03778076171875,0.0022430419921875
1638753846450697700,0.67569775390625,-0.984710693359375,-0.040069580078125,0.0039215087890625
1638753846460717600,0.685717529296875,-0.9881744384765625,-0.0388031005859375,0.0027008056640625
1638753846470738700,0.69573876953125,-0.9927978515625,-0.0375518798828125,0.001312255859375
1638753846480758800,0.7057587890625,-0.9961700439453125,-0.0361480712890625,-0.000732421875
1638753846490779600,0.715779541015625,-0.9948883056640625,-0.0338897705078125,-0.000335693359375
1638753846500799700,0.7257998046875,-0.9928131103515625,-0.0337982177734375,0.0009307861328125
1638753846510819600,0.735819580078125,-0.993560791015625,-0.03436279296875,0.00341796875
1638753846520840200,0.745840087890625,-0.991363525390625,-0.03619384765625,0.0049285888671875
1638753846530860300,0.7558603515625,-0.9903564453125,-0.03765869140625,0.0055694580078125
1638753846540881200,0.765881103515625,-0.987823486328125,-0.0399322509765625,0.006011962890625
1638753846550901200,0.7759013671875,-0.9864349365234375,-0.0405426025390625,0.00653076171875
1638753846560922400,0.78592236328125,-0.9866943359375,-0.04046630859375,0.0068817138671875
1638753846570942200,0.795942138671875,-0.9874114990234375,-0.0411834716796875,0.0075225830078125
1638753846580962300,0.80596240234375,-0.98822021484375,-0.0418548583984375,0.0077667236328125
1638753846590983200,0.815983154296875,-0.9878387451171875,-0.0396728515625,0.0066375732421875
1638753846601003300,0.826003173828125,-0.987060546875,-0.0391693115234375,0.0066986083984375
1638753846611024400,0.8360244140625,-0.987762451171875,-0.0393829345703125,0.0068206787109375
1638753846621044200,0.846044189453125,-0.9880523681640625,-0.0387725830078125,0.006195068359375
1638753846631065300,0.8560654296875,-0.9877777099609375,-0.03778076171875,0.005645751953125
1638753846641085400,0.86608544921875,-0.9903106689453125,-0.038330078125,0.00579833984375
1638753846651105300,0.876105224609375,-0.9918212890625,-0.038360595703125,0.0042572021484375
1638753846661126400,0.88612646484375,-0.99151611328125,-0.0368804931640625,0.0039520263671875
1638753846671146200,0.896146240234375,-0.990936279296875,-0.0373382568359375,0.0034637451171875
1638753846681167400,0.90616748046875,-0.9896240234375,-0.037689208984375,0.0030364990234375
1638753846691187500,0.9161875,-0.9903717041015625,-0.0369873046875,0.003326416015625
1638753846701207000,0.92620703125,-0.9898681640625,-0.03729248046875,0.004058837890625
1638753846711228400,0.936228515625,-0.98992919921875,-0.0377655029296875,0.00341796875
1638753846721248500,0.94624853515625,-0.9890594482421875,-0.0369415283203125,0.00421142578125
1638753846731269400,0.956269287109375,-0.9887847900390625,-0.0373077392578125,0.0050506591796875
1638753846741289500,0.96628955078125,-0.9899444580078125,-0.0373992919921875,0.006683349609375
1638753846751310300,0.976310302734375,-0.9894256591796875,-0.0379791259765625,0.0076904296875
1638753846761330400,0.986330322265625,-0.9896697998046875,-0.0374603271484375,0.00750732421875
1638753846771350300,0.996350341796875,-0.98956298828125,-0.0379180908203125,0.0069732666015625
1638753846781371400,1.006371337890625,-0.988372802734375,-0.0376129150390625,0.0069580078125
1638753846791391500,1.0163916015625,-0.9886016845703125,-0.0368194580078125,0.0083770751953125
1638753846801412400,1.026412353515625,-0.9888458251953125,-0.0379180908203125,0.00738525390625
1638753846811432400,1.036432373046875,-0.9892425537109375,-0.0377349853515625,0.0057830810546875
1638753846821453300,1.046453369140625,-0.98931884765625,-0.0366668701171875,0.0050811767578125
1638753846831473400,1.056473388671875,-0.9888458251953125,-0.0381927490234375,0.00634765625
1638753846841493200,1.0664931640625,-0.9881439208984375,-0.0391082763671875,0.0072784423828125
1638753846851514400,1.076514404296875,-0.9905853271484375,-0.0387115478515625,0.0067138671875
1638753846861534500,1.086534423828125,-0.9914093017578125,-0.0398101806640625,0.0044708251953125
1638753846871555300,1.096555419921875,-0.9896240234375,-0.03936767578125,0.004608154296875
1638753846881575400,1.106575439453125,-0.988372802734375,-0.03924560546875,0.005218505859375
1638753846891596300,1.11659619140625,-0.98919677734375,-0.039642333984375,0.004913330078125
1638753846901616400,1.126616455078125,-0.989959716796875,-0.0391998291015625,0.0045166015625
1638753846911636500,1.136636474609375,-0.990203857421875,-0.0388641357421875,0.0054931640625
1638753846921657300,1.1466572265625,-0.989959716796875,-0.0380401611328125,0.0054779052734375
1638753846931677400,1.156677490234375,-0.989715576171875,-0.03826904296875,0.00604248046875
1638753846941698300,1.1666982421875,-0.9887542724609375,-0.038116455078125,0.00494384765625
1638753846951718400,1.176718505859375,-0.9894866943359375,-0.0382843017578125,0.0050506591796875
1638753846961739300,1.1867392578125,-0.989349365234375,-0.038543701171875,0.004913330078125
1638753846971759400,1.19675927734375,-0.989166259765625,-0.038330078125,0.005340576171875
1638753846981780200,1.2067802734375,-0.9885406494140625,-0.037750244140625,0.004364013671875
1638753846991800300,1.21680029296875,-0.9893951416015625,-0.0374298095703125,0.0059356689453125
1638753847001820400,1.2268203125,-0.9907073974609375,-0.0392608642578125,0.0055999755859375
1638753847011841300,1.23684130859375,-0.98992919921875,-0.0379180908203125,0.004241943359375
1638753847021861400,1.246861328125,-0.9895172119140625,-0.037384033203125,0.0047149658203125
1638753847031882200,1.25688232421875,-0.98907470703125,-0.0370941162109375,0.0062408447265625
1638753847041902300,1.26690234375,-0.9889984130859375,-0.037322998046875,0.0063323974609375
1638753847051923200,1.276923095703125,-0.9894561767578125,-0.03759765625,0.005279541015625
1638753847061943300,1.286943359375,-0.9887237548828125,-0.0384521484375,0.0058746337890625
1638753847071963400,1.29696337890625,-0.988983154296875,-0.0381622314453125,0.0066986083984375
1638753847081984300,1.306984375,-0.988922119140625,-0.039398193359375,0.00604248046875
1638753847092004400,1.31700439453125,-0.9898529052734375,-0.0392608642578125,0.0062103271484375
1638753847102025200,1.327025146484375,-0.9910888671875,-0.038055419921875,0.0070648193359375
1638753847112045300,1.33704541015625,-0.990203857421875,-0.0382232666015625,0.0066680908203125
1638753847122066200,1.347066162109375,-0.9900970458984375,-0.037750244140625,0.0062255859375
1638753847132086300,1.357086181640625,-0.9888916015625,-0.0374298095703125,0.0051727294921875
1638753847142106400,1.3671064453125,-0.988067626953125,-0.0377349853515625,0.0048828125
1638753847152127200,1.377127197265625,-0.989776611328125,-0.03765869140625,0.0048675537109375
1638753847162147300,1.387147216796875,-0.98907470703125,-0.0364837646484375,0.0036773681640625
1638753847172168200,1.397168212890625,-0.990081787109375,-0.0371246337890625,0.0046844482421875
1638753847182188300,1.407188232421875,-0.9897918701171875,-0.0383758544921875,0.0047607421875
1638753847192209200,1.417209228515625,-0.9899749755859375,-0.0385894775390625,0.005645751953125
1638753847202229200,1.427229248046875,-0.990203857421875,-0.0390625,0.0056304931640625
1638753847212249300,1.437249267578125,-0.9893798828125,-0.0388031005859375,0.006805419921875
1638753847222270200,1.447270263671875,-0.9894256591796875,-0.039093017578125,0.0079193115234375
1638753847232290300,1.457290283203125,-0.9886474609375,-0.039398193359375,0.0069580078125
1638753847242311200,1.467311279296875,-0.9888763427734375,-0.039520263671875,0.005859375
1638753847252331300,1.477331298828125,-0.988861083984375,-0.0389251708984375,0.0060577392578125
1638753847262352100,1.48735205078125,-0.9883575439453125,-0.03814697265625,0.00634765625
1638753847272372200,1.497372314453125,-0.9886474609375,-0.0385894775390625,0.005767822265625
1638753847282392300,1.507392333984375,-0.9896240234375,-0.038177490234375,0.00555419921875
1638753847292413200,1.5174130859375,-0.98956298828125,-0.038543701171875,0.0055084228515625
1638753847302433300,1.527433349609375,-0.988983154296875,-0.0383758544921875,0.0050048828125
1638753847312454100,1.5374541015625,-0.98944091796875,-0.0375213623046875,0.0055084228515625
1638753847322474200,1.54747412109375,-0.9896240234375,-0.0374755859375,0.00518798828125
1638753847332495000,1.5574951171875,-0.990570068359375,-0.037811279296875,0.00482177734375
1638753847342515200,1.56751513671875,-0.98974609375,-0.0389251708984375,0.004547119140625
1638753847352535300,1.577535400390625,-0.9891357421875,-0.0387115478515625,0.004852294921875
1638753847362556200,1.58755615234375,-0.989410400390625,-0.0377655029296875,0.005035400390625
1638753847372576300,1.597576171875,-0.9890289306640625,-0.0372772216796875,0.006500244140625
1638753847382597000,1.60759716796875,-0.9893035888671875,-0.0380401611328125,0.006072998046875
1638753847392617200,1.6176171875,-0.989166259765625,-0.0381317138671875,0.006317138671875
1638753847402638000,1.62763818359375,-0.988861083984375,-0.0385589599609375,0.0052642822265625
1638753847412658200,1.637658203125,-0.9895172119140625,-0.0378875732421875,0.005096435546875
1638753847422678300,1.64767822265625,-0.9892730712890625,-0.038421630859375,0.0054931640625
1638753847432699100,1.65769921875,-0.989532470703125,-0.0377655029296875,0.0055999755859375
1638753847442719200,1.66771923828125,-0.989593505859375,-0.0377044677734375,0.005523681640625
1638753847452740000,1.677739990234375,-0.98883056640625,-0.03790283203125,0.00653076171875
1638753847462760200,1.68776025390625,-0.9889678955078125,-0.03863525390625,0.00592041015625
1638753847472781000,1.697781005859375,-0.9896697998046875,-0.038177490234375,0.0063629150390625
1638753847482801200,1.70780126953125,-0.989410400390625,-0.03790283203125,0.0056610107421875
1638753847492822300,1.717822265625,-0.9890289306640625,-0.0383148193359375,0.0058441162109375
1638753847502842000,1.727842041015625,-0.9896240234375,-0.0386962890625,0.0057220458984375
1638753847512862200,1.7378623046875,-0.989837646484375,-0.03936767578125,0.0049896240234375
1638753847522882600,1.747882568359375,-0.989715576171875,-0.0394439697265625,0.0064697265625
1638753847532902400,1.75790234375,-0.9891510009765625,-0.038543701171875,0.00518798828125
1638753847542923500,1.767923583984375,-0.98944091796875,-0.038604736328125,0.0053253173828125
1638753847552943400,1.777943359375,-0.989288330078125,-0.0376739501953125,0.0058746337890625
1638753847562964700,1.78796484375,-0.9892578125,-0.03741455078125,0.0049896240234375
1638753847572984600,1.797984619140625,-0.989715576171875,-0.03759765625,0.005615234375
1638753847583004400,1.80800439453125,-0.9901885986328125,-0.0367584228515625,0.005096435546875
1638753847593025500,1.818025634765625,-0.98974609375,-0.036346435546875,0.005157470703125
1638753847603045400,1.82804541015625,-0.9893951416015625,-0.03515625,0.00555419921875
1638753847613066800,1.838066650390625,-0.9899444580078125,-0.03466796875,0.0047454833984375
1638753847623086300,1.84808642578125,-0.990142822265625,-0.03509521484375,0.004974365234375
1638753847633107700,1.858107666015625,-0.9898529052734375,-0.036041259765625,0.0045166015625
1638753847643127600,1.86812744140625,-0.9891510009765625,-0.0370635986328125,0.003662109375
1638753847653147400,1.8781474609375,-0.9892730712890625,-0.0391387939453125,0.0038604736328125
1638753847663168800,1.888168701171875,-0.989105224609375,-0.040435791015625,0.0033111572265625
1638753847673188400,1.898188232421875,-0.98895263671875,-0.040740966796875,0.0030517578125
1638753847683209700,1.908209716796875,-0.9889984130859375,-0.0406341552734375,0.002777099609375
1638753847693229600,1.9182294921875,-0.989654541015625,-0.0403900146484375,0.0052032470703125
1638753847703250700,1.928250732421875,-0.990234375,-0.0393829345703125,0.00634765625
1638753847713270800,1.938270751953125,-0.991607666015625,-0.0370941162109375,0.008453369140625
1638753847723290400,1.948290283203125,-0.9915618896484375,-0.03753662109375,0.0091705322265625
1638753847733311700,1.958311767578125,-0.99072265625,-0.03692626953125,0.0087890625
1638753847743331600,1.96833154296875,-0.98846435546875,-0.0355682373046875,0.0073089599609375
1638753847753352700,1.978352783203125,-0.9863433837890625,-0.03631591796875,0.0062408447265625
1638753847763372500,1.98837255859375,-0.9862060546875,-0.036956787109375,0.0059051513671875
1638753847773393700,1.9983935546875,-0.9873504638671875,-0.0368804931640625,0.006500244140625
1638753847783413800,2.008413818359375,-0.98846435546875,-0.0366058349609375,0.0051727294921875
1638753847793434600,2.0184345703125,-0.9891815185546875,-0.0361175537109375,0.00640869140625
1638753847803454700,2.028454833984375,-0.9902191162109375,-0.0370635986328125,0.006317138671875
1638753847813474600,2.038474609375,-0.99072265625,-0.038818359375,0.00689697265625
1638753847823495700,2.04849560546875,-0.98956298828125,-0.040435791015625,0.006500244140625
1638753847833515500,2.058515625,-0.9882659912109375,-0.040771484375,0.0057830810546875
1638753847843536600,2.06853662109375,-0.9872894287109375,-0.039947509765625,0.0054931640625
1638753847853556700,2.078556640625,-0.9849700927734375,-0.0389556884765625,0.005767822265625
1638753847863577600,2.08857763671875,-0.9852447509765625,-0.0398406982421875,0.005767822265625
1638753847873597700,2.09859765625,-0.986083984375,-0.0381622314453125,0.0069427490234375
1638753847883617500,2.108617431640625,-0.9871826171875,-0.0343475341796875,0.007415771484375
1638753847893638700,2.118638671875,-0.990478515625,-0.03106689453125,0.0077972412109375
1638753847903658800,2.12865869140625,-0.9899139404296875,-0.02386474609375,0.0048828125
1638753847913679600,2.1386796875,-0.9927520751953125,-0.026611328125,0.009063720703125
1638753847923699700,2.14869970703125,-0.9914093017578125,-0.034210205078125,0.0082855224609375
1638753847933720600,2.158720458984375,-0.985595703125,-0.0382232666015625,0.0029449462890625
1638753847943740700,2.16874072265625,-0.9836883544921875,-0.04766845703125,-0.0016937255859375
1638753847953761500,2.178761474609375,-0.979827880859375,-0.056549072265625,-0.004730224609375
1638753847963781600,2.18878173828125,-0.9736175537109375,-0.0577545166015625,-0.006744384765625
1638753847973801700,2.1988017578125,-0.9724273681640625,-0.0510101318359375,-0.008697509765625
1638753847983822600,2.208822509765625,-0.976593017578125,-0.046966552734375,-0.006927490234375
1638753847993842700,2.2188427734375,-0.9839630126953125,-0.04840087890625,-0.000732421875
1638753848003863600,2.228863525390625,-0.9888458251953125,-0.05224609375,0.0074920654296875
1638753848013883600,2.238883544921875,-0.9901580810546875,-0.05267333984375,0.0128173828125
1638753848023904500,2.248904541015625,-0.9888763427734375,-0.06256103515625,0.008697509765625
1638753848033924600,2.258924560546875,-0.9830780029296875,-0.0661163330078125,0.007080078125
1638753848043944700,2.26894482421875,-0.978607177734375,-0.064178466796875,0.0073394775390625
1638753848053965600,2.278965576171875,-0.9768524169921875,-0.05865478515625,0.0030059814453125
1638753848063985700,2.288985595703125,-0.980926513671875,-0.05364990234375,-0.0001983642578125
1638753848074006500,2.299006591796875,-0.98651123046875,-0.0535125732421875,-0.00390625
1638753848084026600,2.309026611328125,-0.98876953125,-0.053192138671875,-0.0059661865234375
1638753848094047500,2.319047607421875,-0.987060546875,-0.0482330322265625,-0.0035552978515625
1638753848104067600,2.329067626953125,-0.9875030517578125,-0.0466461181640625,-0.0081024169921875
1638753848114088400,2.33908837890625,-0.9876251220703125,-0.0507049560546875,-0.015289306640625
1638753848124108500,2.349108642578125,-0.9864349365234375,-0.0548553466796875,-0.019927978515625
1638753848134128600,2.359128662109375,-0.988006591796875,-0.0590362548828125,-0.0247955322265625
1638753848144149500,2.3691494140625,-0.993743896484375,-0.0629425048828125,-0.031005859375
1638753848154169600,2.379169677734375,-0.999847412109375,-0.06500244140625,-0.035552978515625
1638753848164190500,2.3891904296875,-1.0022735595703125,-0.0658721923828125,-0.0390777587890625
1638753848174210600,2.39921044921875,-0.99835205078125,-0.064697265625,-0.0372161865234375
1638753848184231400,2.4092314453125,-0.9952239990234375,-0.064056396484375,-0.0343780517578125
1638753848194251500,2.41925146484375,-0.9924468994140625,-0.067108154296875,-0.0359344482421875
1638753848204272400,2.4292724609375,-0.990814208984375,-0.0696868896484375,-0.0378570556640625
1638753848214292500,2.43929248046875,-0.9912261962890625,-0.069610595703125,-0.039093017578125
1638753848224312600,2.4493125,-0.99530029296875,-0.0682525634765625,-0.03863525390625
1638753848234333400,2.45933349609375,-0.9962005615234375,-0.0643310546875,-0.0359954833984375
1638753848244353500,2.469353515625,-0.9937286376953125,-0.0587921142578125,-0.0322723388671875
1638753848254374400,2.47937451171875,-0.989593505859375,-0.05615234375,-0.0308685302734375
1638753848264394500,2.48939453125,-0.9853973388671875,-0.0560150146484375,-0.0283966064453125
1638753848274415600,2.49941552734375,-0.983001708984375,-0.0618438720703125,-0.0297698974609375
1638753848284435500,2.509435546875,-0.9856109619140625,-0.0669708251953125,-0.0303497314453125
1638753848294455600,2.51945556640625,-0.9897613525390625,-0.0722503662109375,-0.03167724609375
1638753848304476400,2.529476318359375,-0.992584228515625,-0.075347900390625,-0.032989501953125
1638753848314496500,2.53949658203125,-0.99359130859375,-0.077117919921875,-0.0303192138671875
1638753848324517400,2.549517333984375,-0.9935760498046875,-0.0787353515625,-0.0321044921875
1638753848334537500,2.559537353515625,-0.993255615234375,-0.080596923828125,-0.0369415283203125
1638753848344558600,2.56955859375,-0.9922332763671875,-0.0794219970703125,-0.0350799560546875
1638753848354578400,2.579578369140625,-0.9909820556640625,-0.079345703125,-0.0366668701171875
1638753848364599600,2.589599609375,-0.98974609375,-0.079071044921875,-0.039398193359375
1638753848374619400,2.599619384765625,-0.9878082275390625,-0.07159423828125,-0.0374603271484375
1638753848384639500,2.609639404296875,-0.9867706298828125,-0.0677642822265625,-0.0365447998046875
1638753848394660400,2.619660400390625,-0.9862823486328125,-0.06451416015625,-0.0380096435546875
1638753848404680400,2.629680419921875,-0.9850616455078125,-0.0612335205078125,-0.038970947265625
1638753848414701600,2.63970166015625,-0.985137939453125,-0.0590057373046875,-0.0375213623046875
1638753848424721400,2.649721435546875,-0.9904937744140625,-0.0590972900390625,-0.0334014892578125
1638753848434742500,2.659742431640625,-0.99200439453125,-0.0598602294921875,-0.0313568115234375
1638753848444762400,2.669762451171875,-0.9901275634765625,-0.060394287109375,-0.033203125
1638753848454783700,2.67978369140625,-0.9847412109375,-0.062744140625,-0.0300140380859375
1638753848464803600,2.689803466796875,-0.9807891845703125,-0.0651092529296875,-0.03033447265625
1638753848474823400,2.699823486328125,-0.9820556640625,-0.0662078857421875,-0.034912109375
1638753848484844500,2.709844482421875,-0.984954833984375,-0.064239501953125,-0.0360107421875
1638753848494864400,2.719864501953125,-0.9893951416015625,-0.0638580322265625,-0.037322998046875
1638753848504885800,2.7298857421875,-0.992706298828125,-0.0615234375,-0.0336151123046875
1638753848514905300,2.7399052734375,-0.9923095703125,-0.060089111328125,-0.0324554443359375
1638753848524926500,2.749926513671875,-0.9886322021484375,-0.0599822998046875,-0.032806396484375
1638753848534946600,2.759946533203125,-0.9855804443359375,-0.056427001953125,-0.028594970703125
1638753848544967400,2.769967529296875,-0.9835205078125,-0.0547943115234375,-0.028656005859375
1638753848554987500,2.779987548828125,-0.982177734375,-0.0525054931640625,-0.029876708984375
1638753848565007400,2.79000732421875,-0.9798736572265625,-0.0543365478515625,-0.0337066650390625
1638753848575028500,2.800028564453125,-0.98150634765625,-0.0579376220703125,-0.0389404296875
1638753848585048300,2.81004833984375,-0.9863739013671875,-0.0578460693359375,-0.026947021484375
1638753848595069400,2.8200693359375,-0.9886932373046875,-0.062835693359375,-0.0308380126953125
1638753848605089500,2.830089599609375,-0.9894256591796875,-0.06146240234375,-0.03204345703125
1638753848615110700,2.840110595703125,-0.9882659912109375,-0.0571746826171875,-0.0347137451171875
1638753848625130500,2.850130615234375,-0.985504150390625,-0.052703857421875,-0.03424072265625
1638753848635151600,2.860151611328125,-0.9838714599609375,-0.051727294921875,-0.0335693359375
1638753848645171500,2.87017138671875,-0.983917236328125,-0.05364990234375,-0.0310211181640625
1638753848655191300,2.88019140625,-0.98150634765625,-0.058258056640625,-0.031341552734375
1638753848665212700,2.890212646484375,-0.9788970947265625,-0.0551300048828125,-0.020263671875
1638753848675232500,2.900232421875,-0.9791412353515625,-0.06134033203125,-0.0385894775390625
1638753848685253600,2.910253662109375,-0.98504638671875,-0.0656280517578125,-0.0507659912109375
1638753848695273700,2.920273681640625,-0.9929962158203125,-0.0620574951171875,-0.049560546875
1638753848705294600,2.930294677734375,-0.9987030029296875,-0.0616302490234375,-0.0563507080078125
1638753848715314700,2.940314697265625,-0.9994964599609375,-0.064849853515625,-0.0599365234375
1638753848725335600,2.95033544921875,-0.9978179931640625,-0.0699462890625,-0.05145263671875
1638753848735355600,2.960355712890625,-0.99334716796875,-0.0720977783203125,-0.045989990234375
1638753848745375700,2.970375732421875,-0.9894256591796875,-0.068450927734375,-0.0388336181640625
1638753848755396600,2.980396728515625,-0.9916534423828125,-0.06243896484375,-0.0325927734375
1638753848765416700,2.990416748046875,-0.9912567138671875,-0.0603179931640625,-0.0227813720703125
1638753848775437600,3.0004375,-0.98651123046875,-0.0621490478515625,-0.0129852294921875
1638753848785457700,3.010457763671875,-0.976959228515625,-0.05621337890625,-0.0155181884765625
1638753848795478500,3.020478515625,-0.9732208251953125,-0.053741455078125,-0.0293426513671875
1638753848805498600,3.03049853515625,-0.976593017578125,-0.0511932373046875,-0.0438385009765625
1638753848815518700,3.040518798828125,-0.98614501953125,-0.0496673583984375,-0.0571746826171875
1638753848825539600,3.05053955078125,-0.9952545166015625,-0.051422119140625,-0.0612640380859375
1638753848835559700,3.0605595703125,-1.0024261474609375,-0.05718994140625,-0.0586090087890625
1638753848845580500,3.07058056640625,-1.002593994140625,-0.0597991943359375,-0.052276611328125
1638753848855600600,3.0806005859375,-0.99420166015625,-0.0612945556640625,-0.0457763671875
1638753848865621500,3.09062158203125,-0.9841461181640625,-0.0634918212890625,-0.0421600341796875
1638753848875641600,3.1006416015625,-0.9768218994140625,-0.0665435791015625,-0.03948974609375
1638753848885662500,3.110662353515625,-0.97357177734375,-0.069427490234375,-0.035491943359375
1638753848895682600,3.1206826171875,-0.97894287109375,-0.068389892578125,-0.0290374755859375
1638753848905702700,3.13070263671875,-0.98468017578125,-0.0630950927734375,-0.0234375
1638753848915723500,3.1407236328125,-0.9872283935546875,-0.06072998046875,-0.0274200439453125
1638753848925743600,3.15074365234375,-0.987091064453125,-0.0592193603515625,-0.0299072265625
1638753848935764500,3.160764404296875,-0.986236572265625,-0.05535888671875,-0.030609130859375
1638753848945784600,3.17078466796875,-0.985443115234375,-0.0508575439453125,-0.0422210693359375
1638753848955805400,3.180805419921875,-0.9888153076171875,-0.0573577880859375,-0.051513671875
1638753848965825500,3.190825439453125,-0.992828369140625,-0.0593414306640625,-0.056488037109375
1638753848975846700,3.2008466796875,-0.9923248291015625,-0.0540924072265625,-0.064849853515625
1638753848985866500,3.210866455078125,-0.99053955078125,-0.050323486328125,-0.0666961669921875
1638753848995887600,3.2208876953125,-0.9891815185546875,-0.0541229248046875,-0.0673980712890625
1638753849005907500,3.230907470703125,-0.9864044189453125,-0.0571441650390625,-0.0624237060546875
1638753849015927600,3.240927490234375,-0.98736572265625,-0.05841064453125,-0.05706787109375
1638753849025948400,3.250948486328125,-0.99041748046875,-0.057159423828125,-0.0551910400390625
1638753849035968500,3.260968505859375,-0.99468994140625,-0.0565338134765625,-0.05596923828125
1638753849045989600,3.27098974609375,-0.9969940185546875,-0.0571136474609375,-0.0581207275390625
1638753849056009500,3.281009521484375,-1.00006103515625,-0.0556793212890625,-0.060028076171875
1638753849066030600,3.291030517578125,-1.0032196044921875,-0.0535125732421875,-0.0595245361328125
1638753849076050400,3.301050537109375,-1.0044708251953125,-0.0540924072265625,-0.0589752197265625
1638753849086071600,3.311071533203125,-0.9987945556640625,-0.0524749755859375,-0.05804443359375
1638753849096091400,3.32109130859375,-0.9914398193359375,-0.0500335693359375,-0.056549072265625
1638753849106111500,3.331111572265625,-0.986572265625,-0.041412353515625,-0.046905517578125
1638753849116132600,3.341132568359375,-0.9806060791015625,-0.04339599609375,-0.04827880859375
1638753849126152400,3.35115234375,-0.981903076171875,-0.040283203125,-0.0636444091796875
1638753849136173600,3.361173583984375,-0.98883056640625,-0.033721923828125,-0.0419921875
1638753849146193400,3.371193359375,-0.9900360107421875,-0.0356292724609375,-0.038665771484375
1638753849156214500,3.381214599609375,-0.9850616455078125,-0.0560150146484375,-0.0391845703125
1638753849166234400,3.391234375,-0.9823760986328125,-0.094635009765625,-0.04107666015625
1638753849176255500,3.40125537109375,-0.973907470703125,-0.141815185546875,-0.0043792724609375
1638753849186275600,3.411275634765625,-0.950469970703125,-0.11492919921875,0.01934814453125
1638753849196295400,3.42129541015625,-0.954742431640625,-0.0792388916015625,0.0050506591796875
1638753849206316500,3.431316650390625,-0.9836578369140625,-0.076690673828125,-0.0059814453125
1638753849216336400,3.44133642578125,-0.9969024658203125,-0.068389892578125,-0.0183258056640625
1638753849226357500,3.451357421875,-0.9915008544921875,-0.0460662841796875,-0.0263214111328125
1638753849236377600,3.461377685546875,-0.9934539794921875,-0.0229644775390625,-0.0335540771484375
1638753849246398500,3.4713984375,-0.9947052001953125,0.0007781982421875,-0.053131103515625
1638753849256418600,3.48141845703125,-0.9896697998046875,0.0270843505859375,-0.078460693359375
1638753849266439400,3.491439453125,-0.989593505859375,0.023651123046875,-0.088623046875
1638753849276459500,3.50145947265625,-0.989349365234375,-0.0072479248046875,-0.085784912109375
1638753849286479400,3.511479248046875,-0.9861907958984375,-0.0444183349609375,-0.07537841796875
1638753849296500500,3.52150048828125,-0.984527587890625,-0.070220947265625,-0.065216064453125
1638753849306520600,3.5315205078125,-0.983489990234375,-0.0794219970703125,-0.0636444091796875
1638753849316541400,3.54154150390625,-0.9869537353515625,-0.08599853515625,-0.0625762939453125
1638753849326561500,3.5515615234375,-0.9883575439453125,-0.0886993408203125,-0.0561065673828125
1638753849336582400,3.56158251953125,-0.989044189453125,-0.0907440185546875,-0.0487060546875
1638753849346602500,3.5716025390625,-0.9849395751953125,-0.0844879150390625,-0.03643798828125
1638753849356623400,3.581623291015625,-0.9819488525390625,-0.0668792724609375,-0.022125244140625
1638753849366643500,3.5916435546875,-0.983123779296875,-0.04656982421875,-0.01336669921875
1638753849376664600,3.60166455078125,-0.9845123291015625,-0.0088348388671875,-0.0106658935546875
1638753849386684400,3.611684326171875,-0.9884796142578125,0.024688720703125,-0.02459716796875
1638753849396704500,3.62170458984375,-0.990081787109375,0.03961181640625,-0.0397796630859375
1638753849406725400,3.631725341796875,-0.9821319580078125,0.057830810546875,-0.054290771484375
1638753849416745500,3.641745361328125,-0.9680633544921875,0.069854736328125,-0.071807861328125
1638753849426766600,3.6517666015625,-0.9570770263671875,0.0498199462890625,-0.0806121826171875
1638753849436786400,3.661786376953125,-0.9552459716796875,0.01055908203125,-0.0900726318359375
1638753849446807600,3.6718076171875,-0.9557647705078125,-0.023040771484375,-0.1172637939453125
1638753849456827400,3.681827392578125,-0.9733734130859375,-0.0579681396484375,-0.13177490234375
1638753849466848500,3.6918486328125,-0.988922119140625,-0.08599853515625,-0.12353515625
1638753849476868600,3.70186865234375,-1.004608154296875,-0.0927886962890625,-0.0894927978515625
1638753849486888400,3.711888427734375,-1.042236328125,-0.1178741455078125,-0.0286102294921875
1638753849496909600,3.72190966796875,-1.05535888671875,-0.1219940185546875,0.0176849365234375
1638753849506929700,3.7319296875,-1.030120849609375,-0.0745391845703125,0.042694091796875
1638753849516950500,3.741950439453125,-0.9981842041015625,-0.019989013671875,0.001434326171875
1638753849526971000,3.751970947265625,-0.9751434326171875,0.0344390869140625,-0.0443572998046875
1638753849536991700,3.76199169921875,-0.9606170654296875,0.0382232666015625,-0.0554962158203125
1638753849547011800,3.77201171875,-0.9608154296875,-0.0569305419921875,-0.0389862060546875
1638753849557032700,3.78203271484375,-0.9552001953125,-0.143280029296875,0.0091705322265625
1638753849567052800,3.792052734375,-0.94891357421875,-0.1797332763671875,0.0320892333984375
1638753849577074000,3.802073974609375,-0.9592437744140625,-0.1886749267578125,0.0367431640625
1638753849587093800,3.81209375,-0.987152099609375,-0.1732177734375,0.035064697265625
1638753849597113900,3.82211376953125,-1.0106048583984375,-0.14202880859375,-0.0012359619140625
1638753849607134700,3.832134765625,-1.0149993896484375,-0.1284332275390625,-0.0260009765625
1638753849617154800,3.84215478515625,-0.99981689453125,-0.1172027587890625,-0.02764892578125
1638753849627175700,3.85217578125,-0.9786834716796875,-0.0980224609375,-0.0224761962890625
1638753849637195800,3.86219580078125,-0.9625091552734375,-0.0879974365234375,-0.03472900390625
1638753849647217000,3.872216796875,-0.9668731689453125,-0.1183319091796875,-0.0149688720703125
1638753849657236700,3.88223681640625,-0.9808349609375,-0.155609130859375,0.0402069091796875
1638753849667257900,3.8922578125,-0.991424560546875,-0.1756439208984375,0.0398101806640625
1638753849677277700,3.902277587890625,-1.009429931640625,-0.1649932861328125,0.027618408203125
1638753849687299000,3.912299072265625,-1.0172271728515625,-0.1298980712890625,0.0231170654296875
1638753849697319000,3.92231884765625,-1.012603759765625,-0.1118927001953125,-0.0039520263671875
1638753849707338800,3.9323388671875,-0.9936065673828125,-0.099853515625,-0.0371246337890625
1638753849717359900,3.94235986328125,-0.9862213134765625,-0.1209564208984375,-0.0628204345703125
1638753849727379700,3.952379638671875,-0.9865570068359375,-0.1103057861328125,-0.0608978271484375
1638753849737401000,3.962401123046875,-0.993682861328125,-0.1067657470703125,-0.0586395263671875
1638753849747420700,3.972420654296875,-0.9993438720703125,-0.1347503662109375,-0.0422210693359375
1638753849757442000,3.982442138671875,-0.994903564453125,-0.14727783203125,-0.02227783203125
1638753849767462000,3.9924619140625,-0.9954376220703125,-0.1543121337890625,-0.0258026123046875
1638753849777483000,4.00248291015625,-1.001983642578125,-0.1540069580078125,-0.01922607421875
1638753849787503000,4.012503173828125,-1.0112152099609375,-0.14886474609375,-0.03125
1638753849797522700,4.022522705078125,-1.0147705078125,-0.119354248046875,-0.0277862548828125
1638753849807544000,4.0325439453125,-0.99853515625,-0.06439208984375,-0.01995849609375
1638753849817564000,4.04256396484375,-0.9794769287109375,-0.0326385498046875,-0.035369873046875
1638753849827585000,4.0525849609375,-0.959228515625,-0.0104522705078125,-0.029571533203125
1638753849837605000,4.062605224609375,-0.9436492919921875,0.002227783203125,0.0019989013671875
1638753849847626000,4.0726259765625,-0.9353485107421875,0.0058441162109375,0.031982421875
1638753849857646000,4.08264599609375,-0.9338531494140625,0.02984619140625,0.0590057373046875
1638753849867667000,4.0926669921875,-0.9492950439453125,0.022705078125,0.0578765869140625
1638753849877687000,4.10268701171875,-0.96759033203125,-0.000701904296875,0.0499114990234375
1638753849887708000,4.1127080078125,-0.9766845703125,-0.02471923828125,0.04071044921875
1638753849897728000,4.12272802734375,-0.978759765625,-0.0736083984375,0.033111572265625
1638753849907748000,4.132748046875,-0.9749603271484375,-0.1227874755859375,0.03460693359375
1638753849917769000,4.14276904296875,-0.9674224853515625,-0.1546173095703125,0.0198974609375
1638753849927789000,4.1527890625,-0.971038818359375,-0.10546875,0.0046539306640625
1638753849937810000,4.162809814453125,-0.9990997314453125,-0.05560302734375,-0.0352020263671875
1638753849947830000,4.172830078125,-1.0135650634765625,-0.0477294921875,-0.0547943115234375
1638753849957851000,4.182850830078125,-0.9958648681640625,-0.066131591796875,-0.0478363037109375
1638753849967871000,4.19287109375,-0.960968017578125,-0.110748291015625,-0.027618408203125
1638753849977891800,4.202891845703125,-0.9346466064453125,-0.1114654541015625,-0.007476806640625
1638753849987912000,4.212911865234375,-0.944976806640625,-0.1200103759765625,-0.0129241943359375
1638753849997932800,4.222932861328125,-0.9719390869140625,-0.1106414794921875,-0.019134521484375
1638753850007953000,4.232952880859375,-0.999755859375,-0.079559326171875,-0.025054931640625
1638753850017973000,4.242972900390625,-1.019927978515625,-0.1078948974609375,-0.0410308837890625
1638753850027993900,4.252993896484375,-1.018463134765625,-0.110321044921875,-0.02850341796875
1638753850038014000,4.263013916015625,-1.0087127685546875,-0.0990142822265625,-0.0216064453125
1638753850048034800,4.273034912109375,-0.991943359375,-0.0576019287109375,-0.0327911376953125
1638753850058055000,4.283054931640625,-0.990325927734375,-0.0880889892578125,-0.0660552978515625
1638753850068075800,4.29307568359375,-0.9859161376953125,-0.18792724609375,-0.0719451904296875
1638753850078096000,4.303095947265625,-0.969207763671875,-0.186553955078125,-0.0494232177734375
1638753850088117000,4.313116943359375,-0.9776458740234375,-0.1786956787109375,-0.0682525634765625
1638753850098136800,4.32313671875,-0.9897613525390625,-0.12982177734375,-0.06951904296875
1638753850108158000,4.333157958984375,-1.00299072265625,-0.0402069091796875,-0.07623291015625
1638753850118177800,4.343177734375,-1.0177764892578125,-0.0318756103515625,-0.10382080078125
1638753850128198000,4.353197998046875,-1.0150909423828125,-0.03656005859375,-0.074798583984375
1638753850138218800,4.36321875,-0.998260498046875,-0.0595703125,-0.0487518310546875
1638753850148238800,4.37323876953125,-0.980712890625,-0.0907745361328125,-0.034393310546875
1638753850158260000,4.383260009765625,-0.975799560546875,-0.0886688232421875,-0.003936767578125
1638753850168279800,4.39327978515625,-0.98876953125,-0.1002655029296875,-0.00384521484375
1638753850178301000,4.403301025390625,-0.9989471435546875,-0.0686492919921875,0.004852294921875
1638753850188320800,4.41332080078125,-0.998931884765625,-0.0074462890625,-0.0038604736328125
1638753850198342000,4.423341796875,-0.9915924072265625,0.0390167236328125,-0.04083251953125
1638753850208362000,4.433362060546875,-0.9788818359375,0.0135955810546875,-0.084381103515625
1638753850218382800,4.4433828125,-0.967987060546875,-0.082672119140625,-0.0785980224609375
1638753850228403000,4.45340283203125,-0.9608917236328125,-0.128387451171875,-0.0636138916015625
1638753850238422800,4.4634228515625,-0.9728240966796875,-0.1307830810546875,-0.06158447265625
1638753850248444000,4.47344384765625,-0.993621826171875,-0.123291015625,-0.0528411865234375
1638753850258463700,4.483463623046875,-1.0099334716796875,-0.09521484375,-0.0445709228515625
1638753850268484900,4.49348486328125,-1.014617919921875,-0.0733184814453125,-0.0324249267578125
1638753850278505000,4.5035048828125,-0.9974517822265625,-0.0320587158203125,-0.0390167236328125
1638753850288525800,4.51352587890625,-0.97686767578125,0.01190185546875,-0.0518798828125
1638753850298546000,4.5235458984375,-0.962371826171875,-0.0045318603515625,-0.0764617919921875
1638753850308566800,4.53356689453125,-0.9635467529296875,-0.0446319580078125,-0.0857086181640625
1638753850318587000,4.5435869140625,-0.975311279296875,-0.0746917724609375,-0.0747528076171875
1638753850328607700,4.553607666015625,-0.986297607421875,-0.0906219482421875,-0.072174072265625
1638753850338627800,4.5636279296875,-0.990081787109375,-0.0936737060546875,-0.0705108642578125
1638753850348648000,4.57364794921875,-0.9863739013671875,-0.0764007568359375,-0.0608978271484375
1638753850358668800,4.583668701171875,-0.9837493896484375,-0.0646514892578125,-0.0609283447265625
1638753850368689000,4.59368896484375,-0.9845733642578125,-0.0584259033203125,-0.05438232421875
1638753850378709800,4.603709716796875,-0.9905548095703125,-0.0695648193359375,-0.0561370849609375
1638753850388729900,4.613729736328125,-0.9908447265625,-0.0816192626953125,-0.0625152587890625
1638753850398750700,4.623750732421875,-0.984222412109375,-0.0806121826171875,-0.073516845703125
1638753850408770800,4.633770751953125,-0.97991943359375,-0.07159423828125,-0.0833587646484375
1638753850418792000,4.6437919921875,-0.9774169921875,-0.0599822998046875,-0.0944671630859375
1638753850428811800,4.653811767578125,-0.975921630859375,-0.0423736572265625,-0.0930633544921875
1638753850438833000,4.6638330078125,-0.9763641357421875,-0.0323486328125,-0.0806884765625
1638753850448852700,4.673852783203125,-0.9770050048828125,-0.0271148681640625,-0.0695343017578125
1638753850458872800,4.683872802734375,-0.981170654296875,-0.053009033203125,-0.0622406005859375
1638753850468894000,4.69389404296875,-0.9810028076171875,-0.0846405029296875,-0.0601959228515625
1638753850478913800,4.703913818359375,-0.973602294921875,-0.0872039794921875,-0.0637969970703125
1638753850488935000,4.713934814453125,-0.97735595703125,-0.0865325927734375,-0.068359375
1638753850498955000,4.723955078125,-0.9909820556640625,-0.0984954833984375,-0.083465576171875
1638753850508975900,4.733975830078125,-0.99859619140625,-0.0944671630859375,-0.091827392578125
1638753850518996000,4.743995849609375,-1.00115966796875,-0.090728759765625,-0.1021728515625
1638753850529017000,4.75401708984375,-0.9993133544921875,-0.0823822021484375,-0.1060791015625
1638753850539037000,4.764036865234375,-0.9913787841796875,-0.0751800537109375,-0.10699462890625
1638753850549058000,4.77405810546875,-0.9853515625,-0.0832061767578125,-0.103271484375
1638753850559078000,4.784077880859375,-0.981414794921875,-0.0800323486328125,-0.1009674072265625
1638753850569099000,4.79409912109375,-0.9842681884765625,-0.0757293701171875,-0.1007843017578125
1638753850579118800,4.804118896484375,-0.9920654296875,-0.07257080078125,-0.0963134765625
1638753850589139000,4.814138916015625,-1.000030517578125,-0.0715484619140625,-0.0897369384765625
1638753850599160000,4.82416015625,-1.0046539306640625,-0.073394775390625,-0.0833892822265625
1638753850609180000,4.834179931640625,-1.006011962890625,-0.0764007568359375,-0.0752716064453125
1638753850619201000,4.844200927734375,-1.00018310546875,-0.078277587890625,-0.07080078125
1638753850629220900,4.854220947265625,-0.988677978515625,-0.0730438232421875,-0.0726776123046875
1638753850639242000,4.864241943359375,-0.980316162109375,-0.0726318359375,-0.076507568359375
1638753850649261800,4.87426171875,-0.9766998291015625,-0.0772857666015625,-0.0792236328125
1638753850659283000,4.884282958984375,-0.97442626953125,-0.080474853515625,-0.0819549560546875
1638753850669303000,4.894302978515625,-0.978057861328125,-0.078033447265625,-0.0851898193359375
1638753850679324000,4.904323974609375,-0.9837799072265625,-0.0765838623046875,-0.08740234375
1638753850689344000,4.914343994140625,-0.9873504638671875,-0.0736083984375,-0.0849609375
1638753850699364900,4.92436474609375,-0.985748291015625,-0.0691680908203125,-0.0814361572265625
1638753850709385000,4.934385009765625,-0.980133056640625,-0.0677947998046875,-0.077606201171875
1638753850719405000,4.944405029296875,-0.975830078125,-0.069549560546875,-0.074249267578125
1638753850729426000,4.954426025390625,-0.9752044677734375,-0.0707550048828125,-0.0729827880859375
1638753850739446000,4.964446044921875,-0.9821319580078125,-0.07318115234375,-0.072998046875
1638753850749467000,4.974466796875,-0.9885711669921875,-0.074554443359375,-0.072723388671875
1638753850759487000,4.984487060546875,-0.98822021484375,-0.0730133056640625,-0.075653076171875
1638753850769507800,4.9945078125,-0.98681640625,-0.0710296630859375,-0.0797576904296875
1638753850779528000,5.00452783203125,-0.9854583740234375,-0.073089599609375,-0.0831451416015625
1638753850789548800,5.014548828125,-0.9828643798828125,-0.07720947265625,-0.0873565673828125
1638753850799569000,5.02456884765625,-0.9756622314453125,-0.0800323486328125,-0.0865325927734375
1638753850809589800,5.03458984375,-0.9624481201171875,-0.0720062255859375,-0.080413818359375
1638753850819609900,5.04460986328125,-0.9636383056640625,-0.066864013671875,-0.087127685546875
1638753850829630000,5.0546298828125,-0.9845428466796875,-0.0694122314453125,-0.0848236083984375
1638753850839650800,5.06465087890625,-0.98980712890625,-0.0650634765625,-0.07684326171875
1638753850849671000,5.0746708984375,-0.976776123046875,-0.0722808837890625,-0.0669097900390625
1638753850859691800,5.08469189453125,-0.9715576171875,-0.08575439453125,-0.0673370361328125
1638753850869712000,5.0947119140625,-0.9632720947265625,-0.06610107421875,-0.0753631591796875
1638753850879732700,5.104732666015625,-0.9795379638671875,-0.0540008544921875,-0.0806732177734375
1638753850889752800,5.1147529296875,-1.02362060546875,-0.0500640869140625,-0.0748748779296875
1638753850899774000,5.12477392578125,-1.019866943359375,-0.0433349609375,-0.0685577392578125
1638753850909793800,5.134793701171875,-1.0048675537109375,-0.0501251220703125,-0.0589599609375
1638753850919815000,5.14481494140625,-0.9959564208984375,-0.054443359375,-0.0678253173828125
1638753850929834800,5.154834716796875,-1.0051116943359375,-0.0573577880859375,-0.06890869140625
1638753850939856000,5.16485595703125,-1.0183258056640625,-0.0605316162109375,-0.059722900390625
1638753850949875700,5.174875732421875,-1.01153564453125,-0.0624542236328125,-0.077056884765625
1638753850959895800,5.184895751953125,-1.0010833740234375,-0.0583953857421875,-0.1069488525390625
1638753850969917000,5.1949169921875,-1.0120697021484375,-0.051666259765625,-0.105316162109375
1638753850979936800,5.204936767578125,-1.001953125,-0.05487060546875,-0.0763397216796875
1638753850989958000,5.2149580078125,-0.9686126708984375,-0.0576934814453125,-0.0445709228515625
1638753850999977700,5.224977783203125,-0.967987060546875,-0.0520172119140625,-0.0375518798828125
1638753851009998800,5.234998779296875,-0.972564697265625,-0.026824951171875,-0.0350494384765625
1638753851020018700,5.245018798828125,-0.9697723388671875,0.012359619140625,-0.0140228271484375
1638753851030039800,5.255039794921875,-0.9541168212890625,-0.0007171630859375,-0.00323486328125
1638753851040060000,5.265059814453125,-0.9370574951171875,-0.0190582275390625,-0.0340576171875
1638753851050080800,5.275080810546875,-0.9564666748046875,-0.0174560546875,-0.0797271728515625
1638753851060100900,5.285100830078125,-1.00311279296875,-0.0196533203125,-0.0713348388671875
1638753851070122000,5.2951220703125,-1.01812744140625,-0.029998779296875,-0.065399169921875
1638753851080141800,5.305141845703125,-1.005584716796875,-0.0447540283203125,-0.0709228515625
1638753851090162000,5.315161865234375,-0.9870758056640625,-0.0740814208984375,-0.0893096923828125
1638753851100183000,5.32518310546875,-0.9828643798828125,-0.1117095947265625,-0.11114501953125
1638753851110203000,5.335202880859375,-0.981414794921875,-0.145599365234375,-0.1375579833984375
1638753851120224000,5.34522412109375,-0.9921875,-0.1643218994140625,-0.131256103515625
1638753851130243800,5.355243896484375,-1.00030517578125,-0.1788787841796875,-0.100677490234375
1638753851140265000,5.365264892578125,-1.0002899169921875,-0.1798095703125,-0.074981689453125
1638753851150285000,5.37528515625,-0.9958038330078125,-0.1758575439453125,-0.0568389892578125
1638753851160306000,5.385305908203125,-0.9790496826171875,-0.16363525390625,-0.084197998046875
1638753851170326000,5.395325927734375,-0.9879150390625,-0.087310791015625,-0.081756591796875
1638753851180347000,5.405346923828125,-0.975799560546875,-0.042144775390625,-0.058868408203125
1638753851190367000,5.415366943359375,-0.9537200927734375,-0.0527801513671875,-0.0622711181640625
1638753851200387800,5.425387939453125,-0.954193115234375,-0.051605224609375,-0.0644073486328125
1638753851210408000,5.435407958984375,-0.9936370849609375,-0.0345458984375,-0.0373077392578125
1638753851220428000,5.445427978515625,-1.0215606689453125,-0.0128326416015625,-0.011016845703125
1638753851230449000,5.455448974609375,-1.0323028564453125,0.0064697265625,-0.0196533203125
1638753851240469000,5.465468994140625,-1.033050537109375,0.0277252197265625,-0.0203399658203125
1638753851250489900,5.47548974609375,-1.00238037109375,0.0202484130859375,-0.0379791259765625
1638753851260510000,5.485510009765625,-0.9756011962890625,-0.00469970703125,-0.0553131103515625
1638753851270530800,5.49553076171875,-0.957855224609375,-0.04730224609375,-0.0560760498046875
1638753851280551000,5.505551025390625,-0.926727294921875,-0.1060028076171875,-0.0607757568359375
1638753851290572000,5.515572021484375,-0.912689208984375,-0.158111572265625,-0.04718017578125
1638753851300591900,5.525591796875,-0.9295501708984375,-0.2156829833984375,-0.05157470703125
1638753851310613000,5.535613037109375,-0.9682159423828125,-0.2360687255859375,-0.1071624755859375
1638753851320632800,5.5456328125,-0.9912109375,-0.1050872802734375,-0.068115234375
1638753851330654000,5.555654052734375,-0.9890594482421875,-0.015625,-0.0527496337890625
1638753851340674000,5.565674072265625,-1.0043182373046875,-0.022430419921875,-0.0802154541015625
1638753851350694000,5.57569384765625,-1.024810791015625,-0.0430145263671875,-0.0457763671875
1638753851360715000,5.585715087890625,-1.0298309326171875,-0.05950927734375,-0.03460693359375
1638753851370734800,5.59573486328125,-1.0081787109375,-0.06903076171875,-0.0274658203125
1638753851380756000,5.605755859375,-0.982391357421875,-0.07855224609375,-0.031951904296875
1638753851390775800,5.61577587890625,-0.8809661865234375,-0.042724609375,-0.1043243408203125
1638753851400797000,5.625796875,-0.9019012451171875,0.020355224609375,-0.02630615234375
1638753851410817000,5.635817138671875,-1.006072998046875,0.019622802734375,0.008758544921875
1638753851420838000,5.645837890625,-1.0649261474609375,-0.0139617919921875,-0.0138092041015625
1638753851430858000,5.65585791015625,-1.0590667724609375,-0.0298309326171875,-0.0001220703125
1638753851440878800,5.66587890625,-1.001190185546875,-0.0417633056640625,-0.0175933837890625
1638753851450899000,5.67589892578125,-0.9609222412109375,-0.0615234375,-0.0370025634765625
1638753851460919800,5.685919921875,-0.95953369140625,-0.0640869140625,-0.03924560546875
1638753851470940000,5.69593994140625,-0.9697723388671875,-0.056671142578125,-0.0371856689453125
1638753851480960000,5.7059599609375,-0.9864349365234375,-0.0562591552734375,-0.0473175048828125
1638753851490980900,5.71598095703125,-1.0021514892578125,-0.0580596923828125,-0.056488037109375
1638753851501001000,5.7260009765625,-1.00750732421875,-0.0573577880859375,-0.057037353515625
1638753851511021800,5.736021728515625,-1.0025787353515625,-0.0538787841796875,-0.0529937744140625
1638753851521042000,5.7460419921875,-0.995697021484375,-0.0516815185546875,-0.0510711669921875
1638753851531062800,5.756062744140625,-0.9912872314453125,-0.048309326171875,-0.04876708984375
1638753851541083000,5.766082763671875,-0.9899139404296875,-0.0477142333984375,-0.046051025390625
1638753851551103700,5.776103759765625,-0.9910125732421875,-0.0484771728515625,-0.0433349609375
1638753851561123800,5.786123779296875,-0.98992919921875,-0.04693603515625,-0.0383453369140625
1638753851571144700,5.796144775390625,-0.9888458251953125,-0.0458831787109375,-0.03521728515625
1638753851581164800,5.806164794921875,-0.9862823486328125,-0.0380401611328125,-0.02789306640625
1638753851591186000,5.81618603515625,-0.984130859375,-0.0307769775390625,-0.02252197265625
1638753851601205800,5.826205810546875,-0.982879638671875,-0.02667236328125,-0.0206146240234375
1638753851611227000,5.836226806640625,-0.9825592041015625,-0.0250396728515625,-0.020233154296875
1638753851621246700,5.846246826171875,-0.98175048828125,-0.0264892578125,-0.0211181640625
1638753851631266800,5.856266845703125,-0.9815521240234375,-0.03021240234375,-0.02362060546875
1638753851641287700,5.86628759765625,-0.981658935546875,-0.03704833984375,-0.0274505615234375
1638753851651307800,5.876307861328125,-0.9810638427734375,-0.0391387939453125,-0.0353240966796875
1638753851661329000,5.886328857421875,-0.9816436767578125,-0.0426177978515625,-0.038909912109375
1638753851671348700,5.8963486328125,-0.9826202392578125,-0.047607421875,-0.0312042236328125
1638753851681369900,5.906369873046875,-0.9799652099609375,-0.0483245849609375,-0.0216217041015625
1638753851691389700,5.9163896484375,-0.97650146484375,-0.0456390380859375,-0.0153350830078125
1638753851701411000,5.9264111328125,-0.9769439697265625,-0.0424957275390625,-0.009918212890625
1638753851711431000,5.936430908203125,-0.97674560546875,-0.0355987548828125,-0.006103515625
1638753851721452000,5.9464521484375,-0.976409912109375,-0.0219879150390625,-0.0073089599609375
1638753851731472000,5.956471923828125,-0.977813720703125,-0.0175018310546875,-0.0152587890625
1638753851741493000,5.966492919921875,-0.9826812744140625,-0.03070068359375,-0.020751953125
1638753851751513000,5.97651318359375,-0.99090576171875,-0.04168701171875,-0.0265350341796875
1638753851761534000,5.986533935546875,-0.9976043701171875,-0.044158935546875,-0.0373077392578125
1638753851771554000,5.996553955078125,-0.99652099609375,-0.0390472412109375,-0.0452728271484375
1638753851781574000,6.006573974609375,-0.9954376220703125,-0.0370635986328125,-0.0459747314453125
1638753851791595000,6.016594970703125,-0.9966888427734375,-0.0432586669921875,-0.048736572265625
1638753851801615000,6.026614990234375,-1.001129150390625,-0.0518798828125,-0.0535430908203125
1638753851811636000,6.036635986328125,-1.0030517578125,-0.051971435546875,-0.056854248046875
1638753851821656000,6.046656005859375,-0.999969482421875,-0.0483551025390625,-0.0618896484375
1638753851831677000,6.056677001953125,-0.994964599609375,-0.0457000732421875,-0.0598907470703125
1638753851841697000,6.066697021484375,-0.98968505859375,-0.0408782958984375,-0.0482940673828125
1638753851851718000,6.0767177734375,-0.989349365234375,-0.0396728515625,-0.0346527099609375
1638753851861738000,6.086738037109375,-0.99578857421875,-0.0412750244140625,-0.03173828125
1638753851871758800,6.0967587890625,-1.00189208984375,-0.041107177734375,-0.0363311767578125
1638753851881779000,6.106779052734375,-1.004913330078125,-0.0413970947265625,-0.040863037109375
1638753851891799800,6.1167998046875,-1.0001678466796875,-0.04156494140625,-0.0451507568359375
1638753851901820000,6.12681982421875,-0.9896392822265625,-0.0414581298828125,-0.0464324951171875
1638753851911841000,6.136841064453125,-0.981353759765625,-0.0417938232421875,-0.0455169677734375
1638753851921860900,6.14686083984375,-0.9767913818359375,-0.0408935546875,-0.041351318359375
1638753851931881000,6.156880859375,-0.9785614013671875,-0.0404510498046875,-0.037139892578125
1638753851941901800,6.16690185546875,-0.98291015625,-0.0392303466796875,-0.033477783203125
1638753851951922000,6.176921875,-0.987457275390625,-0.0394287109375,-0.0301666259765625
1638753851961942800,6.18694287109375,-0.989593505859375,-0.0374603271484375,-0.0274658203125
1638753851971963000,6.196962890625,-0.9882659912109375,-0.036529541015625,-0.024139404296875
1638753851981984000,6.20698388671875,-0.9854888916015625,-0.0374755859375,-0.023193359375
1638753851992003800,6.21700390625,-0.982147216796875,-0.0381622314453125,-0.02484130859375
1638753852002025000,6.22702490234375,-0.9815673828125,-0.0384521484375,-0.0279693603515625
1638753852012044800,6.237044921875,-0.9828033447265625,-0.0374603271484375,-0.0321502685546875
1638753852022066000,6.24706591796875,-0.985076904296875,-0.036590576171875,-0.0345001220703125
1638753852032086000,6.2570859375,-0.9864959716796875,-0.0366363525390625,-0.03619384765625
1638753852042107000,6.26710693359375,-0.9880523681640625,-0.0356597900390625,-0.0375518798828125
1638753852052127000,6.277126953125,-0.9882965087890625,-0.035491943359375,-0.03631591796875
1638753852062147800,6.28714794921875,-0.9891204833984375,-0.0356903076171875,-0.0371246337890625
1638753852072168000,6.29716796875,-0.9891357421875,-0.03729248046875,-0.037567138671875
1638753852082188800,6.307188720703125,-0.989898681640625,-0.0379791259765625,-0.0380096435546875
1638753852092209000,6.317208984375,-0.9901275634765625,-0.037689208984375,-0.0382232666015625
1638753852102229000,6.32722900390625,-0.9910125732421875,-0.0370941162109375,-0.03607177734375
1638753852112249900,6.337249755859375,-0.990478515625,-0.0390777587890625,-0.0367279052734375
1638753852122270000,6.34727001953125,-0.9873046875,-0.041748046875,-0.0355682373046875
1638753852132290800,6.357290771484375,-0.9873046875,-0.0405731201171875,-0.0363006591796875
1638753852142311000,6.367310791015625,-0.9884796142578125,-0.0365753173828125,-0.0399169921875
1638753852152331800,6.377331787109375,-0.9896697998046875,-0.0341644287109375,-0.0399627685546875
1638753852162351900,6.387351806640625,-0.989837646484375,-0.033966064453125,-0.0374908447265625
1638753852172372700,6.397372802734375,-0.988800048828125,-0.038909912109375,-0.03424072265625
1638753852182392800,6.407392822265625,-0.9870758056640625,-0.0474700927734375,-0.032440185546875
1638753852192413700,6.41741357421875,-0.9874267578125,-0.0523223876953125,-0.0326995849609375
1638753852202433800,6.427433837890625,-0.992156982421875,-0.054168701171875,-0.03125
1638753852212455000,6.437454833984375,-0.9926605224609375,-0.05450439453125,-0.0298309326171875
1638753852222474800,6.447474853515625,-0.989227294921875,-0.051513671875,-0.0297088623046875
1638753852232495900,6.457495849609375,-0.9872894287109375,-0.04583740234375,-0.0305328369140625
1638753852242515700,6.467515625,-0.9869537353515625,-0.03924560546875,-0.0317535400390625
1638753852252535800,6.477535888671875,-0.9881134033203125,-0.0341033935546875,-0.0343475341796875
1638753852262556700,6.487556640625,-0.988525390625,-0.029693603515625,-0.03759765625
1638753852272576800,6.49757666015625,-0.9879150390625,-0.0276641845703125,-0.0394134521484375
1638753852282598000,6.507597900390625,-0.9882049560546875,-0.0286865234375,-0.039794921875
1638753852292617700,6.51761767578125,-0.988189697265625,-0.0302734375,-0.0403289794921875
1638753852302639000,6.52763916015625,-0.9877166748046875,-0.03387451171875,-0.03851318359375
1638753852312658700,6.53765869140625,-0.9871063232421875,-0.036895751953125,-0.0371246337890625
1638753852322680000,6.54768017578125,-0.9886322021484375,-0.0396270751953125,-0.0349884033203125
1638753852332699600,6.55769970703125,-0.9884033203125,-0.04107666015625,-0.0341949462890625
1638753852342721000,6.567720947265625,-0.9881439208984375,-0.0400848388671875,-0.03399658203125
1638753852352741000,6.5777412109375,-0.9878082275390625,-0.0394744873046875,-0.03387451171875
1638753852362762000,6.587761962890625,-0.9892120361328125,-0.0382232666015625,-0.0343780517578125
1638753852372782000,6.597781982421875,-0.9883575439453125,-0.036529541015625,-0.035308837890625
1638753852382803000,6.607802978515625,-0.9880218505859375,-0.0355682373046875,-0.0366973876953125
1638753852392823000,6.617822998046875,-0.988739013671875,-0.036865234375,-0.03802490234375
1638753852402844000,6.627843994140625,-0.9886322021484375,-0.037109375,-0.0372772216796875
1638753852412864000,6.637864013671875,-0.988983154296875,-0.0383148193359375,-0.0377655029296875
1638753852422884000,6.647884033203125,-0.9893951416015625,-0.040069580078125,-0.035186767578125
1638753852432905000,6.657905029296875,-0.9881439208984375,-0.04193115234375,-0.0356292724609375
1638753852442925000,6.667925048828125,-0.9870758056640625,-0.043060302734375,-0.0348358154296875
1638753852452946000,6.67794580078125,-0.9886627197265625,-0.04302978515625,-0.0342254638671875
1638753852462966000,6.687966064453125,-0.988525390625,-0.043182373046875,-0.033416748046875
1638753852472987000,6.69798681640625,-0.988861083984375,-0.0419158935546875,-0.03350830078125
1638753852483007000,6.708007080078125,-0.98876953125,-0.0409698486328125,-0.0340576171875
1638753852493027800,6.71802783203125,-0.98876953125,-0.0399322509765625,-0.0330047607421875
1638753852503048000,6.7280478515625,-0.9891204833984375,-0.0381927490234375,-0.033538818359375
1638753852513068800,6.73806884765625,-0.9880828857421875,-0.03839111328125,-0.034454345703125
1638753852523088600,6.748088623046875,-0.9884185791015625,-0.037506103515625,-0.0342254638671875
1638753852533109800,6.75810986328125,-0.98876953125,-0.037750244140625,-0.0348663330078125
1638753852543129600,6.768129638671875,-0.9890899658203125,-0.03717041015625,-0.0348358154296875
1638753852553150700,6.778150634765625,-0.98919677734375,-0.037689208984375,-0.0348968505859375
1638753852563170600,6.788170654296875,-0.98858642578125,-0.037811279296875,-0.034454345703125
1638753852573191700,6.798191650390625,-0.9882354736328125,-0.0389862060546875,-0.0355072021484375
1638753852583211800,6.808211669921875,-0.987884521484375,-0.0384368896484375,-0.0356597900390625
1638753852593231600,6.818231689453125,-0.9887542724609375,-0.0383758544921875,-0.0355377197265625
1638753852603252700,6.828252685546875,-0.9884033203125,-0.0382080078125,-0.0351104736328125
1638753852613272600,6.8382724609375,-0.9879608154296875,-0.038421630859375,-0.035125732421875
1638753852623293700,6.848293701171875,-0.9883575439453125,-0.0376739501953125,-0.0360107421875
1638753852633313500,6.8583134765625,-0.98870849609375,-0.0378265380859375,-0.035491943359375
1638753852643334700,6.868334716796875,-0.988861083984375,-0.03839111328125,-0.0346527099609375
1638753852653354800,6.878354736328125,-0.988037109375,-0.0383148193359375,-0.03546142578125
1638753852663375600,6.888375732421875,-0.9890594482421875,-0.0390777587890625,-0.0348968505859375
1638753852673395700,6.898395751953125,-0.9884796142578125,-0.039337158203125,-0.03448486328125
1638753852683416600,6.90841650390625,-0.9891204833984375,-0.039764404296875,-0.03460693359375
1638753852693436700,6.918436767578125,-0.9904327392578125,-0.0393829345703125,-0.0343780517578125
1638753852703457500,6.92845751953125,-0.98870849609375,-0.0392303466796875,-0.035003662109375
1638753852713477600,6.9384775390625,-0.988525390625,-0.0391845703125,-0.035064697265625
1638753852723498500,6.94849853515625,-0.9884033203125,-0.039276123046875,-0.035430908203125
1638753852733518600,6.9585185546875,-0.98931884765625,-0.038482666015625,-0.036224365234375
1638753852743539500,6.96853955078125,-0.987945556640625,-0.03924560546875,-0.0357666015625
1638753852753559600,6.9785595703125,-0.98834228515625,-0.037750244140625,-0.0352935791015625
1638753852763579600,6.98857958984375,-0.98919677734375,-0.0382232666015625,-0.035064697265625
1638753852773600500,6.9986005859375,-0.9892425537109375,-0.0386962890625,-0.0347137451171875
1638753852783620600,7.00862060546875,-0.9884796142578125,-0.038818359375,-0.0350799560546875
1638753852793641500,7.018641357421875,-0.9881134033203125,-0.038665771484375,-0.0345916748046875
1638753852803661600,7.02866162109375,-0.989654541015625,-0.0393829345703125,-0.0347747802734375
1638753852813682700,7.0386826171875,-0.9890899658203125,-0.0394134521484375,-0.0344085693359375
1638753852823702500,7.04870263671875,-0.9893646240234375,-0.0384368896484375,-0.034210205078125
1638753852833724000,7.058723876953125,-0.988250732421875,-0.038421630859375,-0.0342254638671875
1638753852843743700,7.06874365234375,-0.9884490966796875,-0.038177490234375,-0.0350799560546875
1638753852853764900,7.078764892578125,-0.98907470703125,-0.03729248046875,-0.034332275390625
1638753852863784700,7.08878466796875,-0.9886474609375,-0.036712646484375,-0.0343780517578125
1638753852873805800,7.098805908203125,-0.988525390625,-0.0366973876953125,-0.0349884033203125
1638753852883825700,7.10882568359375,-0.9884490966796875,-0.037139892578125,-0.0363311767578125
1638753852893846800,7.1188466796875,-0.9874114990234375,-0.0373077392578125,-0.0355072021484375
1638753852903867000,7.128866943359375,-0.9887237548828125,-0.03863525390625,-0.034332275390625
1638753852913887700,7.1388876953125,-0.9884796142578125,-0.03912353515625,-0.0347747802734375
1638753852923907800,7.148907958984375,-0.9880523681640625,-0.03924560546875,-0.034393310546875
1638753852933927700,7.158927734375,-0.988677978515625,-0.039398193359375,-0.03448486328125
1638753852943948800,7.16894873046875,-0.987701416015625,-0.040069580078125,-0.03363037109375
1638753852953968600,7.17896875,-0.9875030517578125,-0.0397796630859375,-0.0336761474609375
1638753852963989800,7.18898974609375,-0.9880523681640625,-0.0394287109375,-0.033782958984375
1638753852974009900,7.199009765625,-0.9886932373046875,-0.0395050048828125,-0.0337982177734375
1638753852984030700,7.20903076171875,-0.987457275390625,-0.039459228515625,-0.0342559814453125
1638753852994050800,7.21905078125,-0.98785400390625,-0.0380706787109375,-0.03424072265625
1638753853004071700,7.22907177734375,-0.98797607421875,-0.0383453369140625,-0.0335845947265625
1638753853014091800,7.239091796875,-0.987457275390625,-0.03936767578125,-0.0347442626953125
1638753853024112600,7.249112548828125,-0.98876953125,-0.0384979248046875,-0.034393310546875
1638753853034132700,7.2591328125,-0.988677978515625,-0.03765869140625,-0.0352630615234375
1638753853044153600,7.269153564453125,-0.9893035888671875,-0.0381622314453125,-0.0350494384765625
1638753853054173700,7.279173583984375,-0.98883056640625,-0.0390777587890625,-0.034515380859375
1638753853064194600,7.289194580078125,-0.9890289306640625,-0.03900146484375,-0.0340576171875
1638753853074214700,7.299214599609375,-0.98883056640625,-0.0388946533203125,-0.0353851318359375
1638753853084235800,7.30923583984375,-0.9885406494140625,-0.03814697265625,-0.0354766845703125
1638753853094255600,7.319255615234375,-0.98944091796875,-0.037811279296875,-0.03399658203125
1638753853104276700,7.32927685546875,-0.988250732421875,-0.03839111328125,-0.0340728759765625
1638753853114296600,7.339296630859375,-0.9876251220703125,-0.0381317138671875,-0.034423828125
1638753853124317700,7.349317626953125,-0.989166259765625,-0.0381622314453125,-0.0348968505859375
1638753853134337500,7.359337646484375,-0.9883575439453125,-0.0369110107421875,-0.035186767578125
1638753853144357600,7.369357666015625,-0.989105224609375,-0.037353515625,-0.0353240966796875
1638753853154378800,7.379378662109375,-0.988006591796875,-0.0385284423828125,-0.034942626953125
1638753853164398600,7.389398681640625,-0.9877166748046875,-0.0380706787109375,-0.03436279296875
1638753853174419700,7.399419677734375,-0.9886474609375,-0.0380401611328125,-0.0345306396484375
1638753853184439600,7.409439453125,-0.98834228515625,-0.0377349853515625,-0.034393310546875
1638753853194460700,7.419460693359375,-0.98870849609375,-0.0387420654296875,-0.034149169921875
1638753853204480800,7.429480712890625,-0.9881439208984375,-0.0391387939453125,-0.034393310546875
1638753853214501600,7.439501708984375,-0.988067626953125,-0.03948974609375,-0.03466796875
1638753853224521700,7.449521728515625,-0.9897308349609375,-0.03961181640625,-0.0340728759765625
1638753853234542600,7.45954248046875,-0.9894866943359375,-0.039154052734375,-0.034393310546875
1638753853244562700,7.469562744140625,-0.98846435546875,-0.038818359375,-0.0338592529296875
1638753853254583600,7.47958349609375,-0.9892730712890625,-0.039215087890625,-0.03448486328125
1638753853264603600,7.489603759765625,-0.988525390625,-0.0392303466796875,-0.0343475341796875
1638753853274624500,7.49962451171875,-0.9886932373046875,-0.03875732421875,-0.0343170166015625
1638753853284644600,7.50964453125,-0.988922119140625,-0.0387420654296875,-0.03436279296875
1638753853294665500,7.51966552734375,-0.988037109375,-0.03912353515625,-0.0336456298828125
1638753853304685600,7.529685546875,-0.9885406494140625,-0.0386199951171875,-0.0348968505859375
1638753853314706700,7.539706787109375,-0.98858642578125,-0.0389251708984375,-0.0345306396484375
1638753853324726500,7.5497265625,-0.989105224609375,-0.03753662109375,-0.035186767578125
1638753853334746600,7.55974658203125,-0.987762451171875,-0.0376739501953125,-0.03472900390625
1638753853344767500,7.569767578125,-0.9879913330078125,-0.0376739501953125,-0.0346527099609375
1638753853354787600,7.57978759765625,-0.98834228515625,-0.0373382568359375,-0.0355072021484375
1638753853364808700,7.58980859375,-0.98876953125,-0.0375823974609375,-0.0352935791015625
1638753853374828500,7.59982861328125,-0.98822021484375,-0.037628173828125,-0.0344390869140625
1638753853384849700,7.609849609375,-0.987884521484375,-0.038330078125,-0.0343170166015625
1638753853394869800,7.619869873046875,-0.9877166748046875,-0.0385589599609375,-0.0343780517578125
1638753853404891000,7.629890869140625,-0.988128662109375,-0.038787841796875,-0.0343170166015625
1638753853414910700,7.63991064453125,-0.989593505859375,-0.03955078125,-0.0329742431640625
1638753853424931800,7.649931884765625,-0.988250732421875,-0.03863525390625,-0.0341949462890625
1638753853434951700,7.65995166015625,-0.9879302978515625,-0.03765869140625,-0.0338287353515625
1638753853444972800,7.669972900390625,-0.98895263671875,-0.0376739501953125,-0.0339508056640625
1638753853454993000,7.679992919921875,-0.988250732421875,-0.0380859375,-0.0345001220703125
1638753853465013800,7.690013671875,-0.9892425537109375,-0.0369415283203125,-0.034271240234375
1638753853475033900,7.700033935546875,-0.9892120361328125,-0.036651611328125,-0.0348358154296875
1638753853485054700,7.7100546875,-0.9883880615234375,-0.0371856689453125,-0.035430908203125
1638753853495074800,7.72007470703125,-0.9887847900390625,-0.037567138671875,-0.035552978515625
1638753853505095700,7.730095703125,-0.9888458251953125,-0.0378570556640625,-0.035247802734375
1638753853515115800,7.74011572265625,-0.9888153076171875,-0.037841796875,-0.0342559814453125
1638753853525137400,7.750137451171875,-0.9900665283203125,-0.039093017578125,-0.0339813232421875
1638753853535157500,7.760157470703125,-0.9883880615234375,-0.03948974609375,-0.0337677001953125
1638753853545178400,7.770178466796875,-0.9881134033203125,-0.0396270751953125,-0.033416748046875
1638753853555198500,7.780198486328125,-0.9882659912109375,-0.0391693115234375,-0.033721923828125
1638753853565218600,7.790218505859375,-0.9883270263671875,-0.038818359375,-0.03302001953125
1638753853575239400,7.800239501953125,-0.989227294921875,-0.038665771484375,-0.0334320068359375
1638753853585259500,7.810259521484375,-0.9885406494140625,-0.0385284423828125,-0.0339202880859375
1638753853595280400,7.8202802734375,-0.9881591796875,-0.0384063720703125,-0.0341644287109375
1638753853605300500,7.830300537109375,-0.9880218505859375,-0.037689208984375,-0.03436279296875
1638753853615321300,7.8403212890625,-0.9888458251953125,-0.037933349609375,-0.033721923828125
1638753853625341400,7.850341552734375,-0.9886016845703125,-0.0384521484375,-0.03448486328125
1638753853635362300,7.8603623046875,-0.988739013671875,-0.0386199951171875,-0.03485107421875
1638753853645382400,7.87038232421875,-0.9890594482421875,-0.03851318359375,-0.03466796875
1638753853655403300,7.8804033203125,-0.98809814453125,-0.038726806640625,-0.0352325439453125
1638753853665423400,7.89042333984375,-0.9879150390625,-0.0381927490234375,-0.0348358154296875
1638753853675444500,7.900444580078125,-0.9895172119140625,-0.0374298095703125,-0.0348358154296875
1638753853685464300,7.91046435546875,-0.9893951416015625,-0.038482666015625,-0.03485107421875
1638753853695485400,7.9204853515625,-0.988250732421875,-0.0384368896484375,-0.0348968505859375
1638753853705505300,7.93050537109375,-0.9890899658203125,-0.037567138671875,-0.0336151123046875
1638753853715526400,7.9405263671875,-0.98797607421875,-0.03729248046875,-0.0345458984375
1638753853725546200,7.950546142578125,-0.98895263671875,-0.0381011962890625,-0.0353851318359375
1638753853735567400,7.9605673828125,-0.9883575439453125,-0.0373687744140625,-0.034698486328125
1638753853745587500,7.97058740234375,-0.9884185791015625,-0.0372467041015625,-0.03466796875
1638753853755608300,7.9806083984375,-0.98828125,-0.037994384765625,-0.035125732421875
1638753853765628400,7.99062841796875,-0.987518310546875,-0.0379486083984375,-0.0351104736328125
1638753853775649300,8.000649169921875,-0.988067626953125,-0.0379791259765625,-0.03424072265625
1638753853785669400,8.01066943359375,-0.9879608154296875,-0.0387420654296875,-0.0342254638671875
1638753853795689500,8.020689453125,-0.988739013671875,-0.0384979248046875,-0.0334320068359375
1638753853805710300,8.03071044921875,-0.98822021484375,-0.0388946533203125,-0.033660888671875
1638753853815730400,8.04073046875,-0.987335205078125,-0.039093017578125,-0.0335845947265625
1638753853825751300,8.050751220703125,-0.9879913330078125,-0.0390625,-0.0327606201171875
1638753853835771400,8.060771484375,-0.9881744384765625,-0.0385589599609375,-0.0347442626953125
1638753853845792300,8.070792236328124,-0.9882354736328125,-0.0383148193359375,-0.034423828125
1638753853855812400,8.080812255859374,-0.988739013671875,-0.0380706787109375,-0.03424072265625
1638753853865833200,8.090833251953125,-0.9883575439453125,-0.038238525390625,-0.0348663330078125
1638753853875853300,8.100853271484375,-0.9885406494140625,-0.03802490234375,-0.0339508056640625
1638753853885874400,8.11087451171875,-0.9890899658203125,-0.0380859375,-0.0341033935546875
1638753853895894300,8.120894287109374,-0.9888153076171875,-0.0380096435546875,-0.0343017578125
1638753853905915400,8.130915283203125,-0.98907470703125,-0.037811279296875,-0.0351715087890625
1638753853915935200,8.140935302734375,-0.9887237548828125,-0.038238525390625,-0.0345916748046875
1638753853925956600,8.15095654296875,-0.9887847900390625,-0.0384368896484375,-0.0346221923828125
1638753853935976400,8.1609765625,-0.9893646240234375,-0.0377044677734375,-0.0340118408203125
1638753853945997600,8.17099755859375,-0.988311767578125,-0.0385284423828125,-0.0336151123046875
1638753853956017400,8.181017333984375,-0.9879150390625,-0.0382537841796875,-0.033905029296875
1638753853966038500,8.19103857421875,-0.9891204833984375,-0.0380096435546875,-0.033355712890625
1638753853976058400,8.201058349609376,-0.988861083984375,-0.0380401611328125,-0.033233642578125
1638753853986079500,8.21107958984375,-0.98870849609375,-0.038177490234375,-0.0342559814453125
1638753853996099600,8.221099609375,-0.9887237548828125,-0.0391387939453125,-0.03466796875
1638753854006120400,8.231120361328125,-0.98822021484375,-0.0377655029296875,-0.0345916748046875
1638753854016140500,8.241140625,-0.988250732421875,-0.0376739501953125,-0.0342254638671875
1638753854026160400,8.251160400390624,-0.98797607421875,-0.0383758544921875,-0.0330047607421875
1638753854036181500,8.261181396484375,-0.9876708984375,-0.0376434326171875,-0.03399658203125
1638753854046201300,8.271201416015625,-0.9888458251953125,-0.03778076171875,-0.0335693359375
1638753854056222500,8.281222412109376,-0.989227294921875,-0.037567138671875,-0.033447265625
1638753854066242600,8.29124267578125,-0.9884033203125,-0.037506103515625,-0.0342864990234375
1638753854076263400,8.301263427734375,-0.9891510009765625,-0.037200927734375,-0.034942626953125
1638753854086283500,8.311283447265625,-0.988372802734375,-0.0371551513671875,-0.0339202880859375
1638753854096304400,8.321304443359375,-0.98876953125,-0.0374603271484375,-0.0338592529296875
1638753854106324500,8.331324462890626,-0.988922119140625,-0.037017822265625,-0.03515625
1638753854116345300,8.341345458984375,-0.9894561767578125,-0.0381317138671875,-0.0352935791015625
1638753854126365400,8.351365478515625,-0.9890899658203125,-0.0376129150390625,-0.0345458984375
1638753854136386300,8.36138623046875,-0.9891815185546875,-0.0379180908203125,-0.03466796875
1638753854146406400,8.371406494140626,-0.9881744384765625,-0.0383148193359375,-0.0345916748046875
1638753854156427300,8.38142724609375,-0.98895263671875,-0.037445068359375,-0.0337982177734375
1638753854166447400,8.391447265625,-0.9886016845703125,-0.0372467041015625,-0.034423828125
1638753854176468500,8.401468505859375,-0.9893798828125,-0.0362091064453125,-0.0346221923828125
1638753854186488300,8.41148828125,-0.989959716796875,-0.033477783203125,-0.035064697265625
1638753854196509400,8.421509521484374,-0.99053955078125,-0.0324249267578125,-0.0354461669921875
1638753854206529300,8.431529296875,-0.9903106689453125,-0.0315093994140625,-0.035186767578125
1638753854216550400,8.44155029296875,-0.9896697998046875,-0.030487060546875,-0.034759521484375
1638753854226570200,8.4515703125,-0.9889068603515625,-0.0324859619140625,-0.0347137451171875
1638753854236591400,8.46159130859375,-0.989044189453125,-0.034820556640625,-0.03387451171875
1638753854246611500,8.471611572265624,-0.9881744384765625,-0.0353546142578125,-0.034088134765625
1638753854256632300,8.48163232421875,-0.988311767578125,-0.0376434326171875,-0.035614013671875
1638753854266652400,8.49165234375,-0.9888458251953125,-0.039154052734375,-0.0355072021484375
1638753854276672300,8.50167236328125,-0.988067626953125,-0.037872314453125,-0.0353240966796875
1638753854286693400,8.511693359375,-0.9886016845703125,-0.036712646484375,-0.0361785888671875
1638753854296714200,8.52171435546875,-0.988433837890625,-0.035552978515625,-0.0344085693359375
1638753854306734300,8.531734375,-0.987945556640625,-0.0340423583984375,-0.0317535400390625
1638753854316754400,8.54175439453125,-0.98419189453125,-0.0324554443359375,-0.0269012451171875
1638753854326775300,8.551775390625,-0.9795989990234375,-0.0304718017578125,-0.0227813720703125
1638753854336795400,8.56179541015625,-0.9772491455078125,-0.0305328369140625,-0.0230255126953125
1638753854346816300,8.571816162109375,-0.9777069091796875,-0.0320587158203125,-0.0247955322265625
1638753854356836400,8.58183642578125,-0.978271484375,-0.032501220703125,-0.0279693603515625
1638753854366857200,8.591857177734376,-0.9792633056640625,-0.0327606201171875,-0.030059814453125
1638753854376877300,8.601877197265624,-0.98309326171875,-0.029876708984375,-0.03143310546875
1638753854386898200,8.611898193359375,-0.9866943359375,-0.03033447265625,-0.0313720703125
1638753854396918300,8.621918212890625,-0.988250732421875,-0.0330352783203125,-0.026123046875
1638753854406939400,8.631939453125,-0.98529052734375,-0.0329132080078125,-0.0199127197265625
1638753854416959200,8.641959228515624,-0.979461669921875,-0.031341552734375,-0.018341064453125
1638753854426980600,8.651980712890625,-0.9748077392578125,-0.0288543701171875,-0.0207061767578125
1638753854437000400,8.66200048828125,-0.973724365234375,-0.0304718017578125,-0.02642822265625
1638753854447021600,8.672021484375,-0.970947265625,-0.03564453125,-0.0314178466796875
1638753854457041400,8.68204150390625,-0.970184326171875,-0.041595458984375,-0.0374298095703125
1638753854467062500,8.6920625,-0.9718780517578125,-0.0465850830078125,-0.0443115234375
1638753854477082400,8.702082275390625,-0.97296142578125,-0.0420989990234375,-0.0477142333984375
1638753854487103500,8.712103515625,-0.9777069091796875,-0.0376129150390625,-0.0517578125
1638753854497123600,8.72212353515625,-0.9863433837890625,-0.0356903076171875,-0.0526275634765625
1638753854507144400,8.73214453125,-0.993682861328125,-0.0439453125,-0.0537261962890625
1638753854517164500,8.74216455078125,-0.9952392578125,-0.055145263671875,-0.0520172119140625
1638753854527188000,8.75218798828125,-0.9920196533203125,-0.0689849853515625,-0.049102783203125
1638753854537208000,8.7622080078125,-0.98919677734375,-0.0795745849609375,-0.050323486328125
1638753854547229000,8.77222900390625,-0.9853973388671875,-0.08526611328125,-0.054901123046875
1638753854557249000,8.7822490234375,-0.986846923828125,-0.088043212890625,-0.061614990234375
1638753854567269000,8.79226904296875,-0.9927825927734375,-0.087188720703125,-0.06512451171875
1638753854577290000,8.8022900390625,-0.999786376953125,-0.0842742919921875,-0.0685882568359375
1638753854587310000,8.81231005859375,-1.0024261474609375,-0.0837554931640625,-0.0719451904296875
1638753854597331000,8.8223310546875,-1.001800537109375,-0.08544921875,-0.0688629150390625
1638753854607351000,8.83235107421875,-0.998809814453125,-0.0872802734375,-0.0700836181640625
1638753854617372200,8.8423720703125,-0.9950714111328125,-0.084136962890625,-0.0704345703125
1638753854627392000,8.85239208984375,-0.9897308349609375,-0.0802459716796875,-0.073760986328125
1638753854637413400,8.862413330078125,-0.988616943359375,-0.0763702392578125,-0.075836181640625
1638753854647433000,8.872432861328125,-0.99102783203125,-0.0777587890625,-0.0738525390625
1638753854657454300,8.882454345703126,-0.99188232421875,-0.08135986328125,-0.069793701171875
1638753854667474000,8.892473876953124,-0.990386962890625,-0.0837554931640625,-0.06781005859375
1638753854677495300,8.902495361328125,-0.9918365478515625,-0.08251953125,-0.0684967041015625
1638753854687515100,8.91251513671875,-0.9924774169921875,-0.0804290771484375,-0.0687103271484375
1638753854697536300,8.922536376953126,-0.992889404296875,-0.076995849609375,-0.068603515625
1638753854707556400,8.932556396484374,-0.989715576171875,-0.0719451904296875,-0.06500244140625
1638753854717577200,8.9425771484375,-0.9832611083984375,-0.0727691650390625,-0.0643463134765625
1638753854727597300,8.952597412109375,-0.97991943359375,-0.0763397216796875,-0.062652587890625
1638753854737618200,8.9626181640625,-0.9791412353515625,-0.0764617919921875,-0.06298828125
1638753854747638300,8.97263818359375,-0.9805908203125,-0.0770263671875,-0.0688323974609375
1638753854757659100,8.9826591796875,-0.9852142333984375,-0.0765533447265625,-0.072052001953125
1638753854767679200,8.99267919921875,-0.9887237548828125,-0.0726318359375,-0.072601318359375
1638753854777700000,9.0027001953125,-0.990753173828125,-0.072540283203125,-0.0724334716796875
1638753854787720200,9.01272021484375,-0.98919677734375,-0.0740814208984375,-0.0751800537109375
1638753854797741000,9.022740966796874,-0.9863739013671875,-0.07470703125,-0.07708740234375
1638753854807761200,9.03276123046875,-0.9841461181640625,-0.0731353759765625,-0.0763702392578125
1638753854817782300,9.0427822265625,-0.985443115234375,-0.0713043212890625,-0.078155517578125
1638753854827802000,9.052802001953125,-0.9856719970703125,-0.0731201171875,-0.07830810546875
1638753854837822200,9.062822265625,-0.982818603515625,-0.0659637451171875,-0.069183349609375
1638753854847843000,9.072843017578125,-0.9794769287109375,-0.063629150390625,-0.0653533935546875
1638753854857863200,9.08286328125,-0.9785614013671875,-0.066925048828125,-0.0611572265625
1638753854867884000,9.092884033203125,-0.976959228515625,-0.065887451171875,-0.061737060546875
1638753854877904100,9.102904052734376,-0.9756927490234375,-0.0710906982421875,-0.062469482421875
1638753854887925200,9.11292529296875,-0.976043701171875,-0.076812744140625,-0.063385009765625
1638753854897945000,9.122945068359375,-0.9771881103515625,-0.071746826171875,-0.0697174072265625
1638753854907966200,9.13296630859375,-0.9779510498046875,-0.058563232421875,-0.0751495361328125
1638753854917986000,9.142986083984376,-0.979644775390625,-0.0689544677734375,-0.0858612060546875
1638753854928007200,9.153007080078124,-0.98248291015625,-0.0687408447265625,-0.0853271484375
1638753854938027300,9.16302734375,-0.9830474853515625,-0.072113037109375,-0.084197998046875
1638753854948048100,9.173048095703125,-0.979400634765625,-0.072662353515625,-0.0793609619140625
1638753854958068200,9.183068115234375,-0.97564697265625,-0.0727691650390625,-0.07940673828125
1638753854968089000,9.193089111328124,-0.972686767578125,-0.0740814208984375,-0.080230712890625
1638753854978109200,9.203109130859374,-0.9745025634765625,-0.06744384765625,-0.0749053955078125
1638753854988130000,9.213130126953125,-0.9805450439453125,-0.066314697265625,-0.0814666748046875
1638753854998150100,9.223150146484375,-0.9922637939453125,-0.0682220458984375,-0.090728759765625
1638753855008171000,9.2331708984375,-1.000885009765625,-0.0706787109375,-0.097137451171875
1638753855018191000,9.243191162109374,-0.9995880126953125,-0.072265625,-0.0935211181640625
1638753855028212000,9.2532119140625,-0.9917144775390625,-0.0757598876953125,-0.092041015625
1638753855038232000,9.263232177734375,-0.984588623046875,-0.0746307373046875,-0.08673095703125
1638753855048253200,9.273253173828126,-0.97509765625,-0.0785675048828125,-0.0869903564453125
1638753855058273000,9.28327294921875,-0.97137451171875,-0.07806396484375,-0.0866241455078125
1638753855068294100,9.293294189453125,-0.9737091064453125,-0.077728271484375,-0.0982513427734375
1638753855078314000,9.30331396484375,-0.982269287109375,-0.075653076171875,-0.1059722900390625
1638753855088335000,9.313335205078126,-0.991943359375,-0.073486328125,-0.10699462890625
1638753855098355000,9.32335498046875,-0.9933929443359375,-0.0726470947265625,-0.1003570556640625
1638753855108376000,9.3333759765625,-0.993133544921875,-0.0733184814453125,-0.0993194580078125
1638753855118396200,9.343396240234375,-0.9919891357421875,-0.074462890625,-0.0987396240234375
1638753855128417300,9.353417236328125,-0.98687744140625,-0.083587646484375,-0.1010589599609375
1638753855138437000,9.36343701171875,-0.98052978515625,-0.080108642578125,-0.1000823974609375
1638753855148458200,9.373458251953124,-0.983062744140625,-0.079376220703125,-0.10699462890625
1638753855158478300,9.383478271484375,-0.990325927734375,-0.0786590576171875,-0.1072845458984375
1638753855168498000,9.393497802734375,-0.9944610595703125,-0.0787506103515625,-0.1085052490234375
1638753855178519300,9.403519287109376,-0.994049072265625,-0.0785980224609375,-0.1050262451171875
1638753855188539100,9.4135390625,-0.9901123046875,-0.0785675048828125,-0.1031341552734375
1638753855198560300,9.423560302734375,-0.9862823486328125,-0.0796356201171875,-0.1024017333984375
1638753855208580400,9.433580322265625,-0.9849853515625,-0.07965087890625,-0.098175048828125
1638753855218601200,9.443601318359375,-0.982879638671875,-0.077117919921875,-0.0966339111328125
1638753855228621300,9.453621337890626,-0.982635498046875,-0.0739898681640625,-0.0938873291015625
1638753855238642200,9.46364208984375,-0.985107421875,-0.0731658935546875,-0.0936431884765625
1638753855248662300,9.473662353515625,-0.9864044189453125,-0.0692291259765625,-0.0926666259765625
1638753855258683100,9.48368310546875,-0.9833984375,-0.067138671875,-0.0926361083984375
1638753855268703200,9.493703125,-0.97918701171875,-0.0697479248046875,-0.0939483642578125
1638753855278724000,9.50372412109375,-0.97796630859375,-0.0733642578125,-0.104522705078125
1638753855288744200,9.513744140625,-0.976593017578125,-0.06976318359375,-0.1019287109375
1638753855298765000,9.52376513671875,-0.9749755859375,-0.062408447265625,-0.0940093994140625
1638753855308785200,9.53378515625,-0.975311279296875,-0.0659637451171875,-0.099822998046875
1638753855318806300,9.54380615234375,-0.9752655029296875,-0.066314697265625,-0.101226806640625
1638753855328826000,9.553826171875,-0.97509765625,-0.06475830078125,-0.099578857421875
1638753855338847200,9.56384716796875,-0.9744415283203125,-0.0669708251953125,-0.0983123779296875
1638753855348867000,9.5738671875,-0.9745025634765625,-0.0687713623046875,-0.0994415283203125
1638753855358888200,9.58388818359375,-0.975616455078125,-0.0692596435546875,-0.0985107421875
1638753855368908300,9.593908203125,-0.9781951904296875,-0.071197509765625,-0.0996246337890625
1638753855378929200,9.60392919921875,-0.97943115234375,-0.07550048828125,-0.10137939453125
1638753855388949200,9.61394921875,-0.9785614013671875,-0.073394775390625,-0.1010589599609375
1638753855398970000,9.62397021484375,-0.9810333251953125,-0.0768280029296875,-0.1074981689453125
1638753855408990200,9.633990234375,-0.983184814453125,-0.076263427734375,-0.1112823486328125
1638753855419011000,9.644010986328125,-0.9864959716796875,-0.0751953125,-0.1151123046875
1638753855429031200,9.65403125,-0.9889068603515625,-0.07635498046875,-0.115234375
1638753855439052000,9.664052001953126,-0.9904937744140625,-0.075897216796875,-0.1165313720703125
1638753855449072000,9.674072021484376,-0.9901275634765625,-0.0747833251953125,-0.115692138671875
1638753855459093000,9.684093017578125,-0.9878387451171875,-0.0738983154296875,-0.1121826171875
1638753855469113000,9.694113037109375,-0.9862060546875,-0.07183837890625,-0.1085357666015625
1638753855479134200,9.70413427734375,-0.9821929931640625,-0.0689849853515625,-0.103302001953125
1638753855489154000,9.714154052734376,-0.979217529296875,-0.0660858154296875,-0.0999755859375
1638753855499174100,9.724174072265624,-0.9776458740234375,-0.0672454833984375,-0.099822998046875
1638753855509195000,9.734195068359375,-0.978546142578125,-0.0687713623046875,-0.103424072265625
1638753855519215000,9.744215087890625,-0.9817047119140625,-0.06976318359375,-0.105682373046875
1638753855529233000,9.75423291015625,-0.984283447265625,-0.07080078125,-0.109344482421875
1638753855539253000,9.7642529296875,-0.9857635498046875,-0.069732666015625,-0.1152191162109375
1638753855549273900,9.77427392578125,-0.9875335693359375,-0.071746826171875,-0.1171722412109375
1638753855559294000,9.7842939453125,-0.9850311279296875,-0.0711517333984375,-0.1107940673828125
1638753855569315000,9.794315185546875,-0.977203369140625,-0.071136474609375,-0.103668212890625
1638753855579335000,9.8043349609375,-0.9676971435546875,-0.069854736328125,-0.1017303466796875
1638753855589356000,9.81435595703125,-0.96173095703125,-0.0695953369140625,-0.1016387939453125
1638753855599376000,9.8243759765625,-0.960693359375,-0.0694732666015625,-0.1005401611328125
1638753855609397000,9.83439697265625,-0.964569091796875,-0.0665740966796875,-0.0979766845703125
1638753855619416800,9.844416748046875,-0.9728851318359375,-0.0688323974609375,-0.102325439453125
1638753855629438000,9.85443798828125,-0.9820098876953125,-0.07025146484375,-0.1044464111328125
1638753855639458000,9.8644580078125,-0.9882965087890625,-0.0711822509765625,-0.107757568359375
1638753855649479000,9.87447900390625,-0.9907684326171875,-0.074127197265625,-0.11181640625
1638753855659499000,9.8844990234375,-0.98907470703125,-0.0760955810546875,-0.113800048828125
1638753855669520000,9.894519775390625,-0.986053466796875,-0.07952880859375,-0.115966796875
1638753855679540000,9.9045400390625,-0.9837799072265625,-0.082275390625,-0.11773681640625
1638753855689560800,9.914560791015624,-0.982086181640625,-0.0831756591796875,-0.120574951171875
1638753855699581000,9.924580810546875,-0.98388671875,-0.0809783935546875,-0.121917724609375
1638753855709601800,9.934601806640625,-0.9861602783203125,-0.077880859375,-0.1210784912109375
1638753855719622000,9.944621826171876,-0.98809814453125,-0.076751708984375,-0.1207275390625
1638753855729642800,9.954642822265624,-0.9895172119140625,-0.0753326416015625,-0.1174468994140625
1638753855739662800,9.964662841796875,-0.989837646484375,-0.07550048828125,-0.115478515625
1638753855749684000,9.97468408203125,-0.9882659912109375,-0.07489013671875,-0.1149139404296875
1638753855759703800,9.984703857421875,-0.986846923828125,-0.07366943359375,-0.115692138671875
1638753855769725000,9.994724853515624,-0.9856719970703125,-0.0724334716796875,-0.11346435546875
1638753855779744800,10.004744873046874,-0.9824066162109375,-0.0723114013671875,-0.11236572265625
1638753855789766000,10.014765869140625,-0.979827880859375,-0.0726165771484375,-0.1130828857421875
1638753855799785700,10.02478564453125,-0.9816436767578125,-0.0718841552734375,-0.113494873046875
1638753855809806800,10.034806884765626,-0.9823760986328125,-0.0731201171875,-0.111572265625
1638753855819827000,10.044826904296874,-0.9796295166015625,-0.072021484375,-0.1096038818359375
1638753855829848000,10.05484814453125,-0.975250244140625,-0.06964111328125,-0.1084747314453125
1638753855839868000,10.064867919921875,-0.9715423583984375,-0.0689239501953125,-0.1096954345703125
1638753855849887700,10.0748876953125,-0.9658355712890625,-0.068267822265625,-0.1119384765625
1638753855859908900,10.084908935546874,-0.966156005859375,-0.069305419921875,-0.1152191162109375
1638753855869930000,10.094929931640625,-0.97119140625,-0.0702667236328125,-0.11932373046875
1638753855879950000,10.1049501953125,-0.9760589599609375,-0.0723724365234375,-0.1196746826171875
1638753855889970000,10.114969970703125,-0.9810028076171875,-0.072540283203125,-0.1194305419921875
1638753855899991000,10.124990966796876,-0.9836273193359375,-0.0734405517578125,-0.1201171875
1638753855910011100,10.13501123046875,-0.984832763671875,-0.0731048583984375,-0.1188812255859375
1638753855920032000,10.145031982421875,-0.983306884765625,-0.071075439453125,-0.1156158447265625
1638753855930052000,10.155052001953125,-0.9818115234375,-0.0706329345703125,-0.1134033203125
1638753855940073000,10.165072998046876,-0.9793243408203125,-0.073486328125,-0.111907958984375
1638753855950093000,10.175093017578124,-0.9776763916015625,-0.0767059326171875,-0.1110992431640625
1638753855960114000,10.185114013671875,-0.9776763916015625,-0.07861328125,-0.111907958984375
1638753855970134000,10.195134033203125,-0.979034423828125,-0.0786285400390625,-0.1132965087890625
1638753855980155000,10.20515478515625,-0.9818267822265625,-0.0785980224609375,-0.114990234375
1638753855990175000,10.215175048828126,-0.9826812744140625,-0.0787200927734375,-0.1161651611328125
1638753856000196000,10.225196044921875,-0.9832000732421875,-0.0776519775390625,-0.1165313720703125
1638753856010216000,10.2352158203125,-0.983428955078125,-0.076263427734375,-0.1188201904296875
1638753856020237000,10.245237060546875,-0.98382568359375,-0.0744476318359375,-0.121795654296875
1638753856030257000,10.2552568359375,-0.9853973388671875,-0.0745086669921875,-0.122802734375
1638753856040278000,10.265278076171874,-0.9869537353515625,-0.0739288330078125,-0.1210784912109375
1638753856050297900,10.2752978515625,-0.9862213134765625,-0.0740966796875,-0.11822509765625
1638753856060319000,10.285319091796875,-0.9844818115234375,-0.0730438232421875,-0.114166259765625
1638753856070339000,10.295339111328126,-0.97900390625,-0.073211669921875,-0.1123199462890625
1638753856080360000,10.30535986328125,-0.9714813232421875,-0.0734405517578125,-0.1126251220703125
1638753856090380000,10.315380126953125,-0.970916748046875,-0.074371337890625,-0.1155853271484375
1638753856100401000,10.32540087890625,-0.975250244140625,-0.07568359375,-0.1181640625
1638753856110421000,10.3354208984375,-0.9791717529296875,-0.077056884765625,-0.118133544921875
1638753856120441900,10.34544189453125,-0.98211669921875,-0.0783843994140625,-0.1184234619140625
1638753856130462000,10.3554619140625,-0.9827728271484375,-0.07916259765625,-0.11932373046875
1638753856140482800,10.36548291015625,-0.980804443359375,-0.0786590576171875,-0.119110107421875
1638753856150503000,10.3755029296875,-0.979339599609375,-0.0773773193359375,-0.118621826171875
1638753856160523800,10.385523681640626,-0.97918701171875,-0.0760345458984375,-0.1166534423828125
1638753856170543900,10.3955439453125,-0.9767608642578125,-0.076202392578125,-0.115325927734375
1638753856180565000,10.40556494140625,-0.973907470703125,-0.0731353759765625,-0.11602783203125
1638753856190584800,10.415584716796875,-0.975830078125,-0.0724029541015625,-0.1180572509765625
1638753856200606000,10.42560595703125,-0.97760009765625,-0.072357177734375,-0.1198577880859375
1638753856210625800,10.435625732421874,-0.981964111328125,-0.0713958740234375,-0.1212158203125
1638753856220647000,10.44564697265625,-0.988128662109375,-0.07244873046875,-0.121368408203125
1638753856230666800,10.455666748046875,-0.989410400390625,-0.073974609375,-0.118743896484375
1638753856240687900,10.46568798828125,-0.9854736328125,-0.0746612548828125,-0.115997314453125
1638753856250708000,10.4757080078125,-0.9814300537109375,-0.0747528076171875,-0.11566162109375
1638753856260728800,10.485728759765625,-0.98016357421875,-0.0757293701171875,-0.113311767578125
1638753856270749000,10.4957490234375,-0.978424072265625,-0.076202392578125,-0.1137237548828125
1638753856280768800,10.505768798828125,-0.9792938232421875,-0.076171875,-0.1160430908203125
1638753856290790000,10.515789794921876,-0.98150634765625,-0.0753021240234375,-0.1172027587890625
1638753856300810000,10.52581005859375,-0.9834442138671875,-0.0752716064453125,-0.1179962158203125
1638753856310830800,10.535830810546875,-0.9837646484375,-0.0751800537109375,-0.119476318359375
1638753856320851000,10.545850830078125,-0.983734130859375,-0.075469970703125,-0.1208648681640625
1638753856330871800,10.555871826171876,-0.98175048828125,-0.0753326416015625,-0.1213226318359375
1638753856340892000,10.565891845703124,-0.98114013671875,-0.075408935546875,-0.12139892578125
1638753856350913000,10.5759130859375,-0.98004150390625,-0.07672119140625,-0.1218719482421875
1638753856360932900,10.585932861328125,-0.98065185546875,-0.0767059326171875,-0.1220703125
1638753856370954000,10.5959541015625,-0.981658935546875,-0.0775299072265625,-0.12115478515625
1638753856380974000,10.60597412109375,-0.982391357421875,-0.077789306640625,-0.12030029296875
1638753856390995000,10.615994873046875,-0.98321533203125,-0.0772552490234375,-0.11895751953125
1638753856401015000,10.62601513671875,-0.983642578125,-0.075775146484375,-0.11663818359375
1638753856411036000,10.636035888671875,-0.982452392578125,-0.076629638671875,-0.1153411865234375
1638753856421056000,10.646055908203126,-0.9783782958984375,-0.075927734375,-0.11322021484375
1638753856431077000,10.6560771484375,-0.975311279296875,-0.0755615234375,-0.112548828125
1638753856441097000,10.666096923828125,-0.973907470703125,-0.0749969482421875,-0.1126556396484375
1638753856451118000,10.6761181640625,-0.9744110107421875,-0.0740203857421875,-0.11328125
1638753856461138000,10.686137939453126,-0.97491455078125,-0.0727081298828125,-0.1137542724609375
1638753856471159000,10.696158935546874,-0.975830078125,-0.0720977783203125,-0.114715576171875
1638753856481179000,10.706178955078125,-0.9780426025390625,-0.0710906982421875,-0.1139984130859375
1638753856491200000,10.716199951171875,-0.976898193359375,-0.07061767578125,-0.1132049560546875
1638753856501220000,10.72622021484375,-0.975860595703125,-0.0703887939453125,-0.1119842529296875
1638753856511241000,10.736240966796874,-0.972198486328125,-0.0710296630859375,-0.11126708984375
1638753856521261000,10.746260986328124,-0.972686767578125,-0.071929931640625,-0.1128082275390625
1638753856531282000,10.756281982421875,-0.977081298828125,-0.0726318359375,-0.114471435546875
1638753856541302000,10.766302001953125,-0.9791412353515625,-0.0735626220703125,-0.115936279296875
1638753856551323000,10.776322998046876,-0.9790496826171875,-0.0739288330078125,-0.1165313720703125
1638753856561343000,10.786343017578124,-0.9798736572265625,-0.0738067626953125,-0.1191558837890625
1638753856571363800,10.79636376953125,-0.981353759765625,-0.07452392578125,-0.1201019287109375
1638753856581384000,10.806384033203125,-0.9829254150390625,-0.0765533447265625,-0.1201324462890625
1638753856591404800,10.81640478515625,-0.9837646484375,-0.0754241943359375,-0.12017822265625
1638753856601425000,10.8264248046875,-0.984954833984375,-0.0754547119140625,-0.1210174560546875
1638753856611446000,10.836446044921875,-0.985687255859375,-0.07635498046875,-0.1201019287109375
1638753856621465900,10.8464658203125,-0.984405517578125,-0.0769805908203125,-0.1207733154296875
1638753856631487200,10.8564873046875,-0.9838104248046875,-0.077789306640625,-0.121124267578125
1638753856641506800,10.8665068359375,-0.9824371337890625,-0.076141357421875,-0.1213836669921875
1638753856651528200,10.876528076171875,-0.9834747314453125,-0.077362060546875,-0.1201934814453125
1638753856661548000,10.886548095703125,-0.981201171875,-0.0765228271484375,-0.12066650390625
1638753856671569200,10.896569091796875,-0.9825897216796875,-0.074676513671875,-0.1214141845703125
1638753856681589200,10.90658935546875,-0.983642578125,-0.07427978515625,-0.120941162109375
1638753856691610000,10.916610107421874,-0.982879638671875,-0.073638916015625,-0.1198272705078125
1638753856701630200,10.926630126953125,-0.98077392578125,-0.074737548828125,-0.11865234375
1638753856711651000,10.936651123046875,-0.975860595703125,-0.0749664306640625,-0.1167755126953125
1638753856721671200,10.946671142578126,-0.9748382568359375,-0.075958251953125,-0.1153717041015625
1638753856731692000,10.956692138671874,-0.978668212890625,-0.07794189453125,-0.1132049560546875
1638753856741712100,10.966712158203125,-0.9795989990234375,-0.0790252685546875,-0.11334228515625
1638753856751733000,10.97673291015625,-0.9806976318359375,-0.0775299072265625,-0.114593505859375
1638753856761753000,10.986753173828125,-0.9828338623046875,-0.074554443359375,-0.115203857421875
1638753856771773200,10.996773193359376,-0.9815521240234375,-0.0735321044921875,-0.1144866943359375
1638753856781794000,11.0067939453125,-0.9805908203125,-0.0733642578125,-0.11431884765625
1638753856791814100,11.016814208984375,-0.9852142333984375,-0.0733184814453125,-0.1121978759765625
1638753856801835000,11.0268349609375,-0.98492431640625,-0.07470703125,-0.1102447509765625
1638753856811855000,11.036855224609376,-0.9813385009765625,-0.0744781494140625,-0.11004638671875
1638753856821876000,11.0468759765625,-0.9790191650390625,-0.0736236572265625,-0.1119384765625
1638753856831896000,11.05689599609375,-0.9750213623046875,-0.0747528076171875,-0.111572265625
1638753856841917000,11.0669169921875,-0.97027587890625,-0.075042724609375,-0.1142425537109375
1638753856851937000,11.07693701171875,-0.9686431884765625,-0.071685791015625,-0.1213226318359375
1638753856861958100,11.086958251953124,-0.970184326171875,-0.068084716796875,-0.1257781982421875
1638753856871978000,11.09697802734375,-0.9693450927734375,-0.06622314453125,-0.126861572265625
1638753856881999000,11.1069990234375,-0.9728546142578125,-0.065093994140625,-0.1254425048828125
1638753856892019000,11.11701904296875,-0.97662353515625,-0.0656585693359375,-0.117523193359375
1638753856902040000,11.1270400390625,-0.9765167236328125,-0.066497802734375,-0.1141510009765625
1638753856912060000,11.137059814453124,-0.9749755859375,-0.06512451171875,-0.116912841796875
1638753856922081000,11.1470810546875,-0.9786529541015625,-0.069549560546875,-0.12017822265625
1638753856932101000,11.15710107421875,-0.98382568359375,-0.0727081298828125,-0.1215972900390625
1638753856942122000,11.1671220703125,-0.98797607421875,-0.0749969482421875,-0.1228790283203125
1638753856952142000,11.17714208984375,-0.992889404296875,-0.0778961181640625,-0.1224365234375
1638753856962163000,11.187162841796875,-0.9907989501953125,-0.080657958984375,-0.12274169921875
1638753856972183000,11.19718310546875,-0.9861602783203125,-0.082611083984375,-0.1223907470703125
1638753856982204000,11.207203857421876,-0.9827423095703125,-0.0847625732421875,-0.121856689453125
1638753856992224000,11.21722412109375,-0.980133056640625,-0.0851287841796875,-0.12469482421875
1638753857002244900,11.227244873046875,-0.977203369140625,-0.076171875,-0.1232452392578125
1638753857012265000,11.237264892578125,-0.98052978515625,-0.070281982421875,-0.1187896728515625
1638753857022285800,11.247285888671875,-0.9863739013671875,-0.0742645263671875,-0.1153106689453125
1638753857032306000,11.257305908203126,-0.987640380859375,-0.0762176513671875,-0.1141815185546875
1638753857042327000,11.2673271484375,-0.98779296875,-0.0748291015625,-0.1148834228515625
1638753857052347000,11.277346923828125,-0.9858856201171875,-0.078125,-0.1121673583984375
1638753857062368000,11.287367919921875,-0.980072021484375,-0.082183837890625,-0.1139678955078125
1638753857072387800,11.297387939453126,-0.9759368896484375,-0.08074951171875,-0.11541748046875
1638753857082409000,11.307408935546874,-0.9788055419921875,-0.081939697265625,-0.1143798828125
1638753857092428800,11.3174287109375,-0.9800262451171875,-0.084991455078125,-0.115234375
1638753857102450200,11.3274501953125,-0.9787445068359375,-0.08447265625,-0.1162872314453125
1638753857112470000,11.337469970703125,-0.983428955078125,-0.084991455078125,-0.11663818359375
1638753857122491100,11.3474912109375,-0.9857330322265625,-0.0864105224609375,-0.1171417236328125
1638753857132511200,11.35751123046875,-0.9856414794921875,-0.0807647705078125,-0.1164398193359375
1638753857142532000,11.367531982421875,-0.9880218505859375,-0.0767974853515625,-0.118927001953125
1638753857152552200,11.37755224609375,-0.9900360107421875,-0.0755157470703125,-0.117950439453125
1638753857162573000,11.387572998046876,-0.9871978759765625,-0.0741119384765625,-0.1126708984375
1638753857172593200,11.39759326171875,-0.981658935546875,-0.0735321044921875,-0.1128997802734375
1638753857182614000,11.407614013671875,-0.9840240478515625,-0.07293701171875,-0.1136016845703125
1638753857192634000,11.417634033203125,-0.9887847900390625,-0.0745391845703125,-0.1142425537109375
1638753857202655000,11.427655029296876,-0.9899444580078125,-0.071502685546875,-0.1123199462890625
1638753857212675000,11.437675048828124,-0.986907958984375,-0.069000244140625,-0.111358642578125
1638753857222696200,11.4476962890625,-0.9824371337890625,-0.06884765625,-0.1094207763671875
1638753857232716000,11.457716064453125,-0.9756622314453125,-0.0697784423828125,-0.1061553955078125
1638753857242737200,11.467737060546876,-0.9681396484375,-0.069854736328125,-0.1016082763671875
1638753857252757000,11.477757080078124,-0.9627532958984375,-0.068359375,-0.1016693115234375
1638753857262778000,11.487778076171875,-0.9592132568359375,-0.067291259765625,-0.10333251953125
1638753857272798000,11.4977978515625,-0.955230712890625,-0.063507080078125,-0.1046905517578125
1638753857282819000,11.507819091796875,-0.95892333984375,-0.06072998046875,-0.10772705078125
1638753857292839200,11.517839111328126,-0.9679412841796875,-0.061981201171875,-0.110198974609375
1638753857302860000,11.527860107421875,-0.9796142578125,-0.0605010986328125,-0.110137939453125
1638753857312880000,11.537880126953125,-0.990264892578125,-0.0608673095703125,-0.1128692626953125
1638753857322901000,11.54790087890625,-0.996612548828125,-0.0662384033203125,-0.1127166748046875
1638753857332921000,11.557921142578126,-0.9988861083984375,-0.06787109375,-0.10748291015625
1638753857342941000,11.56794091796875,-0.9962005615234375,-0.072540283203125,-0.1031646728515625
1638753857352962000,11.577962158203125,-0.9942474365234375,-0.0829925537109375,-0.095916748046875
1638753857362982100,11.587982177734375,-0.9940338134765625,-0.0864715576171875,-0.0977325439453125
1638753857373003000,11.5980029296875,-0.9959716796875,-0.0863189697265625,-0.105743408203125
1638753857383023900,11.60802392578125,-0.9881134033203125,-0.0911865234375,-0.128448486328125
1638753857393044000,11.6180439453125,-0.977935791015625,-0.0838775634765625,-0.1384735107421875
1638753857403064000,11.62806396484375,-0.97918701171875,-0.07574462890625,-0.1391448974609375
1638753857413085000,11.6380849609375,-0.990020751953125,-0.073699951171875,-0.1353302001953125
1638753857423105000,11.64810498046875,-0.9947357177734375,-0.070404052734375,-0.1251220703125
1638753857433126000,11.6581259765625,-0.9950408935546875,-0.0663604736328125,-0.112030029296875
1638753857443146000,11.66814599609375,-0.99273681640625,-0.0709991455078125,-0.102752685546875
1638753857453166800,11.678166748046875,-0.9888458251953125,-0.077545166015625,-0.09503173828125
1638753857463187000,11.68818701171875,-0.9879608154296875,-0.08233642578125,-0.0902252197265625
1638753857473208000,11.6982080078125,-0.986236572265625,-0.0892333984375,-0.0818023681640625
1638753857483228000,11.708227783203125,-0.9849853515625,-0.0949249267578125,-0.07708740234375
1638753857493249000,11.7182490234375,-0.9869842529296875,-0.0944366455078125,-0.079193115234375
1638753857503268900,11.728268798828125,-0.9893646240234375,-0.0943603515625,-0.081451416015625
1638753857513290000,11.7382900390625,-0.9926910400390625,-0.09136962890625,-0.083831787109375
1638753857523309800,11.748309814453124,-0.992218017578125,-0.08453369140625,-0.0855865478515625
1638753857533331200,11.758331298828125,-0.9864044189453125,-0.078369140625,-0.0868988037109375
1638753857543351300,11.768351318359375,-0.9826507568359375,-0.07196044921875,-0.08599853515625
1638753857553372400,11.778372314453126,-0.9818267822265625,-0.066802978515625,-0.0807037353515625
1638753857563392300,11.788392333984374,-0.98077392578125,-0.06121826171875,-0.0756072998046875
1638753857573413400,11.798413330078125,-0.9827880859375,-0.058319091796875,-0.068115234375
1638753857583433200,11.80843310546875,-0.9858245849609375,-0.0527801513671875,-0.0572662353515625
1638753857593454300,11.818454345703126,-0.9835662841796875,-0.0512542724609375,-0.048858642578125
1638753857603474400,11.828474365234374,-0.9830169677734375,-0.0496978759765625,-0.0381927490234375
1638753857613495300,11.838495361328125,-0.9853973388671875,-0.051025390625,-0.0311431884765625
1638753857623515400,11.848515380859375,-0.985076904296875,-0.0524139404296875,-0.03314208984375
1638753857633536300,11.858536376953126,-0.9833221435546875,-0.048980712890625,-0.03289794921875
1638753857643556400,11.868556396484376,-0.978607177734375,-0.044189453125,-0.0344696044921875
1638753857653577200,11.8785771484375,-0.97491455078125,-0.0369415283203125,-0.0406646728515625
1638753857663597300,11.888597412109375,-0.97705078125,-0.0360870361328125,-0.051422119140625
1638753857673618400,11.898618408203125,-0.98223876953125,-0.03594970703125,-0.0525360107421875
1638753857683638300,11.90863818359375,-0.9836578369140625,-0.0383453369140625,-0.0534515380859375
1638753857693659400,11.918659423828124,-0.9857177734375,-0.0381927490234375,-0.05572509765625
1638753857703679200,11.92867919921875,-0.9832305908203125,-0.0332794189453125,-0.05426025390625
1638753857713700400,11.938700439453125,-0.9790496826171875,-0.0293426513671875,-0.050628662109375
1638753857723720200,11.94872021484375,-0.9779052734375,-0.03558349609375,-0.046661376953125
1638753857733741300,11.9587412109375,-0.982421875,-0.0536346435546875,-0.0457000732421875
1638753857743761400,11.968761474609375,-0.9849090576171875,-0.05718994140625,-0.033660888671875
1638753857753782300,11.9787822265625,-0.9880218505859375,-0.0533905029296875,-0.031341552734375
1638753857763802400,11.98880224609375,-0.9887847900390625,-0.047576904296875,-0.0295257568359375
1638753857773823200,11.9988232421875,-0.98687744140625,-0.0427093505859375,-0.03466796875
1638753857783843300,12.00884326171875,-0.9860076904296875,-0.039337158203125,-0.0315399169921875
1638753857793864200,12.0188642578125,-0.982818603515625,-0.04150390625,-0.0359954833984375
1638753857803884300,12.02888427734375,-0.9817047119140625,-0.0361328125,-0.03607177734375
1638753857813905200,12.0389052734375,-0.9841461181640625,-0.0312652587890625,-0.0369110107421875
1638753857823925200,12.04892529296875,-0.9864349365234375,-0.0267181396484375,-0.029083251953125
1638753857833946000,12.058946044921875,-0.9900665283203125,-0.024749755859375,-0.01898193359375
1638753857843966200,12.06896630859375,-0.9902191162109375,-0.033447265625,-0.02581787109375
1638753857853987300,12.0789873046875,-0.98468017578125,-0.03607177734375,-0.038116455078125
1638753857864007200,12.089007080078124,-0.9847564697265625,-0.028289794921875,-0.043212890625
1638753857874028300,12.0990283203125,-0.98828125,-0.027862548828125,-0.043121337890625
1638753857884048100,12.109048095703125,-0.983062744140625,-0.040435791015625,-0.07501220703125
1638753857894069200,12.1190693359375,-0.9832611083984375,-0.047576904296875,-0.0781402587890625
1638753857904089000,12.129089111328126,-0.984130859375,-0.0520477294921875,-0.05767822265625
1638753857914110200,12.139110107421875,-0.985198974609375,-0.0559539794921875,-0.0346832275390625
1638753857924130300,12.14913037109375,-0.98199462890625,-0.0676116943359375,-0.0147552490234375
1638753857934151200,12.159151123046875,-0.9819793701171875,-0.06854248046875,-0.0054168701171875
1638753857944171300,12.169171142578126,-0.97747802734375,-0.071075439453125,0.0058441162109375
1638753857954192100,12.179192138671874,-0.9836883544921875,-0.073822021484375,0.0364837646484375
1638753857964212200,12.189212158203125,-0.9867706298828125,-0.074737548828125,0.051116943359375
1638753857974233000,12.199233154296875,-0.9959869384765625,-0.055206298828125,0.0800628662109375
1638753857984253200,12.209253173828126,-0.99774169921875,-0.0500335693359375,0.0544281005859375
1638753857994274300,12.2192744140625,-0.9942779541015625,-0.061767578125,0.0150299072265625
1638753858004294100,12.229294189453125,-0.9837188720703125,-0.064178466796875,0.0086822509765625
1638753858014315300,12.239315185546875,-0.9703826904296875,-0.068084716796875,-0.0128631591796875
1638753858024335400,12.24933544921875,-0.96453857421875,-0.0614166259765625,-0.0514068603515625
1638753858034356500,12.2593564453125,-0.9633331298828125,-0.053497314453125,-0.0453338623046875
1638753858044376300,12.269376220703125,-0.976226806640625,-0.046844482421875,-0.034942626953125
1638753858054397400,12.2793974609375,-0.99188232421875,-0.0286712646484375,-0.035675048828125
1638753858064417300,12.289417236328125,-0.99298095703125,-0.022064208984375,-0.0816497802734375
1638753858074438400,12.2994384765625,-0.995697021484375,-0.0225067138671875,-0.131011962890625
1638753858084458200,12.309458251953124,-0.99346923828125,-0.01495361328125,-0.123016357421875
1638753858094479400,12.319479248046875,-0.9862060546875,-0.011383056640625,-0.126708984375
1638753858104499500,12.32949951171875,-0.9862823486328125,-0.0243988037109375,-0.1068878173828125
1638753858114520300,12.339520263671876,-0.98846435546875,-0.0406036376953125,-0.07830810546875
1638753858124540400,12.34954052734375,-0.9888763427734375,-0.0471954345703125,-0.0789794921875
1638753858134561300,12.359561279296875,-0.9940643310546875,-0.0345458984375,-0.094879150390625
1638753858144581400,12.369581298828125,-0.99847412109375,-0.0192108154296875,-0.10858154296875
1638753858154602200,12.379602294921876,-1.0059356689453125,-0.0139312744140625,-0.0997161865234375
1638753858164622300,12.389622314453124,-1.0115966796875,-0.0258941650390625,-0.091522216796875
1638753858174643200,12.399643310546875,-1.0074462890625,-0.03363037109375,-0.089599609375
1638753858184663300,12.409663330078125,-1.00311279296875,-0.03851318359375,-0.071807861328125
1638753858194684200,12.41968408203125,-0.9980316162109375,-0.04302978515625,-0.0598602294921875
1638753858204704300,12.429704345703126,-0.9964141845703125,-0.038482666015625,-0.0431671142578125
1638753858214725400,12.439725341796875,-0.9904327392578125,-0.036376953125,-0.0417633056640625
1638753858224745200,12.4497451171875,-0.9868927001953125,-0.0320587158203125,-0.0414886474609375
1638753858234766300,12.459766357421875,-0.9847259521484375,-0.0256195068359375,-0.04669189453125
1638753858244786200,12.4697861328125,-0.984893798828125,-0.0269622802734375,-0.0556182861328125
1638753858254807300,12.479807373046874,-0.99212646484375,-0.0359649658203125,-0.0493927001953125
1638753858264827100,12.4898271484375,-0.9916534423828125,-0.033935546875,-0.0654296875
1638753858274848300,12.49984814453125,-0.994964599609375,-0.026641845703125,-0.0688934326171875
1638753858284868400,12.509868408203126,-0.996917724609375,-0.0278167724609375,-0.0792236328125
1638753858294889200,12.51988916015625,-0.9927520751953125,-0.0189208984375,-0.071563720703125
1638753858304909300,12.529909423828125,-0.9838409423828125,-0.01104736328125,-0.0633087158203125
1638753858314930200,12.53993017578125,-0.977752685546875,-0.0138702392578125,-0.0516815185546875
1638753858324950300,12.5499501953125,-0.9774932861328125,-0.019073486328125,-0.03717041015625
1638753858334971100,12.55997119140625,-0.98406982421875,-0.0394744873046875,-0.0308685302734375
1638753858344991200,12.5699912109375,-0.9879302978515625,-0.052398681640625,-0.033233642578125
1638753858355012000,12.58001220703125,-0.9892120361328125,-0.0485687255859375,-0.0155487060546875
1638753858365032200,12.5900322265625,-0.987884521484375,-0.0444488525390625,-0.02618408203125
1638753858375053000,12.600052978515626,-0.9873809814453125,-0.0370635986328125,-0.0246124267578125
1638753858385073200,12.6100732421875,-0.98565673828125,-0.0289154052734375,-0.0197906494140625
1638753858395093200,12.62009326171875,-0.9830474853515625,-0.0237274169921875,-0.0310516357421875
1638753858405114000,12.630114013671875,-0.981964111328125,-0.022216796875,-0.0344085693359375
1638753858415134200,12.64013427734375,-0.98370361328125,-0.0210113525390625,-0.024169921875
1638753858425155000,12.650155029296876,-0.9843292236328125,-0.021759033203125,-0.0175933837890625
1638753858435176400,12.660176513671875,-0.98431396484375,-0.026763916015625,-0.02459716796875
1638753858445196000,12.670196044921875,-0.9843902587890625,-0.0364990234375,-0.02984619140625
1638753858455216000,12.680216064453125,-0.98553466796875,-0.040679931640625,-0.0174713134765625
1638753858465237500,12.690237548828126,-0.98883056640625,-0.041717529296875,-0.0212554931640625
1638753858475257000,12.700257080078124,-0.990753173828125,-0.0464630126953125,-0.028533935546875
1638753858485278500,12.710278564453125,-0.9912567138671875,-0.045257568359375,-0.0233917236328125
1638753858495299300,12.72029931640625,-0.986785888671875,-0.03936767578125,-0.0174713134765625
1638753858505319400,12.7303193359375,-0.982025146484375,-0.026519775390625,-0.016876220703125
1638753858515339300,12.74033935546875,-0.9844207763671875,-0.0178680419921875,-0.0208892822265625
1638753858525360400,12.7503603515625,-0.99139404296875,-0.0205078125,-0.02655029296875
1638753858535380500,12.76038037109375,-0.9964752197265625,-0.022430419921875,-0.0357513427734375
1638753858545401600,12.770401611328126,-0.9994354248046875,-0.028961181640625,-0.04351806640625
1638753858555421700,12.780421630859376,-0.9923553466796875,-0.0334014892578125,-0.041473388671875
1638753858565442600,12.790442626953125,-0.9794921875,-0.0349884033203125,-0.034820556640625
1638753858575462700,12.800462646484375,-0.974761962890625,-0.0386199951171875,-0.0357513427734375
1638753858585483500,12.8104833984375,-0.9814910888671875,-0.044158935546875,-0.043853759765625
1638753858595503600,12.820503662109376,-0.9929046630859375,-0.050079345703125,-0.04791259765625
