time,seconds_elapsed,z,y,x
1639426275389483000,0.00948291015625,-0.9194793701171875,-0.4323272705078125,-0.16839599609375
1639426275399446000,0.019446044921875,-0.8948974609375,-0.4528350830078125,-0.17413330078125
1639426275409409000,0.029408935546875,-0.8618316650390625,-0.4690704345703125,-0.17401123046875
1639426275419371800,0.039371826171875,-0.8242950439453125,-0.479400634765625,-0.1661834716796875
1639426275429334800,0.049334716796875,-0.8016510009765625,-0.4970245361328125,-0.1614837646484375
1639426275439297000,0.059297119140625,-0.80877685546875,-0.51416015625,-0.163665771484375
1639426275449260000,0.069260009765625,-0.8125762939453125,-0.517852783203125,-0.1657562255859375
1639426275459223000,0.07922314453125,-0.8087615966796875,-0.516448974609375,-0.175140380859375
1639426275469185800,0.089185791015625,-0.8148345947265625,-0.5185394287109375,-0.1855621337890625
1639426275479148800,0.099148681640625,-0.8324432373046875,-0.523529052734375,-0.186431884765625
1639426275489111000,0.109111083984375,-0.8553924560546875,-0.5296173095703125,-0.1934051513671875
1639426275499074000,0.119073974609375,-0.8671417236328125,-0.52923583984375,-0.2069549560546875
1639426275509037000,0.129037109375,-0.886810302734375,-0.53564453125,-0.2241058349609375
1639426275519000000,0.139,-0.89013671875,-0.53857421875,-0.2421722412109375
1639426275528962800,0.148962890625,-0.8832550048828125,-0.54345703125,-0.2510528564453125
1639426275538925000,0.158925048828125,-0.8730316162109375,-0.551788330078125,-0.2473602294921875
1639426275548888000,0.16888818359375,-0.8542327880859375,-0.5563507080078125,-0.235992431640625
1639426275558851000,0.17885107421875,-0.8368072509765625,-0.5584716796875,-0.2190704345703125
1639426275568814000,0.18881396484375,-0.8222808837890625,-0.5601959228515625,-0.20208740234375
1639426275578775800,0.19877587890625,-0.81085205078125,-0.566497802734375,-0.18798828125
1639426275588738800,0.20873876953125,-0.8022613525390625,-0.576416015625,-0.1793670654296875
1639426275598702000,0.2187021484375,-0.7888641357421875,-0.579986572265625,-0.1680145263671875
1639426275608665000,0.2286650390625,-0.76800537109375,-0.5827789306640625,-0.146209716796875
1639426275618628000,0.238628173828125,-0.7534332275390625,-0.59393310546875,-0.1342315673828125
1639426275628589800,0.24858984375,-0.7501373291015625,-0.5991668701171875,-0.1343536376953125
1639426275638552800,0.258552734375,-0.749359130859375,-0.606353759765625,-0.1393280029296875
1639426275648515800,0.268515869140625,-0.734100341796875,-0.611724853515625,-0.1485443115234375
1639426275658478800,0.278478759765625,-0.7080078125,-0.6119537353515625,-0.13427734375
1639426275668442000,0.288442138671875,-0.6943817138671875,-0.613922119140625,-0.11700439453125
1639426275678403800,0.29840380859375,-0.6941986083984375,-0.6173858642578125,-0.1088409423828125
1639426275688366800,0.308366943359375,-0.7194671630859375,-0.62335205078125,-0.1121826171875
1639426275698329900,0.318329833984375,-0.7595062255859375,-0.6235809326171875,-0.1364593505859375
1639426275708292900,0.32829296875,-0.765960693359375,-0.6132049560546875,-0.154571533203125
1639426275718255900,0.338255859375,-0.6974945068359375,-0.5594940185546875,-0.2318115234375
1639426275728217900,0.3482177734375,-0.725311279296875,-0.5707550048828125,-0.2469024658203125
1639426275738180900,0.358180908203125,-0.7497100830078125,-0.64349365234375,-0.2321014404296875
1639426275748143900,0.368143798828125,-0.74951171875,-0.656951904296875,-0.235748291015625
1639426275758107000,0.37810693359375,-0.754730224609375,-0.6486053466796875,-0.2398681640625
1639426275768069000,0.388069091796875,-0.73028564453125,-0.61956787109375,-0.2295684814453125
1639426275778031900,0.398031982421875,-0.7155609130859375,-0.6053314208984375,-0.2058563232421875
1639426275787995000,0.407994873046875,-0.715240478515625,-0.6038818359375,-0.1878662109375
1639426275797958000,0.4179580078125,-0.7454681396484375,-0.62713623046875,-0.1706390380859375
1639426275807921000,0.4279208984375,-0.779998779296875,-0.6589202880859375,-0.176361083984375
1639426275817883100,0.437883056640625,-0.7935638427734375,-0.6530609130859375,-0.2244720458984375
1639426275827846100,0.44784619140625,-0.8004150390625,-0.6576690673828125,-0.30047607421875
1639426275837809000,0.457808837890625,-0.7967681884765625,-0.6512451171875,-0.387939453125
1639426275847772000,0.46777197265625,-0.7938690185546875,-0.6534576416015625,-0.4250030517578125
1639426275857735000,0.47773486328125,-0.778167724609375,-0.67181396484375,-0.40838623046875
1639426275867697000,0.48769677734375,-0.745452880859375,-0.694427490234375,-0.34552001953125
1639426275877660200,0.49766015625,-0.716583251953125,-0.706787109375,-0.2744293212890625
1639426275887623000,0.507622802734375,-0.7039031982421875,-0.7176055908203125,-0.229278564453125
1639426275897586000,0.5175859375,-0.7000579833984375,-0.7227630615234375,-0.2125701904296875
1639426275907549000,0.527548828125,-0.6986846923828125,-0.726409912109375,-0.21563720703125
1639426275917511000,0.537510986328125,-0.70306396484375,-0.7279510498046875,-0.22967529296875
1639426275927474000,0.547473876953125,-0.7076416015625,-0.72601318359375,-0.2433013916015625
1639426275937437000,0.55743701171875,-0.7064666748046875,-0.725616455078125,-0.2539825439453125
1639426275947400000,0.56739990234375,-0.689483642578125,-0.73724365234375,-0.2768402099609375
1639426275957363000,0.577363037109375,-0.682159423828125,-0.739410400390625,-0.2967681884765625
1639426275967325000,0.587324951171875,-0.699615478515625,-0.71441650390625,-0.2812347412109375
1639426275977288000,0.597287841796875,-0.7047271728515625,-0.7078399658203125,-0.2770843505859375
1639426275987251000,0.6072509765625,-0.7020111083984375,-0.714263916015625,-0.2648773193359375
1639426275997214000,0.6172138671875,-0.701324462890625,-0.7199859619140625,-0.23480224609375
1639426276007177000,0.627177001953125,-0.6843414306640625,-0.7114105224609375,-0.2052154541015625
1639426276017139000,0.637138916015625,-0.68365478515625,-0.7006683349609375,-0.1845703125
1639426276027102000,0.64710205078125,-0.7107391357421875,-0.688140869140625,-0.1637725830078125
1639426276037065000,0.65706494140625,-0.74169921875,-0.66876220703125,-0.1492919921875
1639426276047027700,0.66702783203125,-0.76824951171875,-0.646820068359375,-0.141021728515625
1639426276056990000,0.676989990234375,-0.7985076904296875,-0.6272125244140625,-0.1404266357421875
1639426276066953000,0.686952880859375,-0.81903076171875,-0.6107025146484375,-0.1224517822265625
1639426276076916000,0.696916015625,-0.824066162109375,-0.6013641357421875,-0.0853729248046875
1639426276086879000,0.70687890625,-0.8215789794921875,-0.60614013671875,-0.068878173828125
1639426276096842000,0.716842041015625,-0.8214874267578125,-0.6172332763671875,-0.07525634765625
1639426276106804000,0.726803955078125,-0.819488525390625,-0.6274261474609375,-0.0740509033203125
1639426276116767000,0.73676708984375,-0.805908203125,-0.6387939453125,-0.0623931884765625
1639426276126730000,0.74672998046875,-0.7828216552734375,-0.6498260498046875,-0.0512542724609375
1639426276136693000,0.75669287109375,-0.7487335205078125,-0.661529541015625,-0.0425872802734375
1639426276146656000,0.766656005859375,-0.7108917236328125,-0.6759796142578125,-0.044769287109375
1639426276156618000,0.776617919921875,-0.688568115234375,-0.690032958984375,-0.0557403564453125
1639426276166581000,0.7865810546875,-0.67364501953125,-0.6968536376953125,-0.052825927734375
1639426276176544000,0.7965439453125,-0.6638641357421875,-0.7052001953125,-0.0386962890625
1639426276186507000,0.806507080078125,-0.669952392578125,-0.708587646484375,-0.0214385986328125
1639426276196470000,0.816469970703125,-0.68365478515625,-0.7009429931640625,-0.0060577392578125
1639426276206431700,0.826431640625,-0.701202392578125,-0.68975830078125,-0.0067291259765625
1639426276216395000,0.83639501953125,-0.719635009765625,-0.6870574951171875,-0.019500732421875
1639426276226358000,0.84635791015625,-0.7349090576171875,-0.6862335205078125,-0.0264892578125
1639426276236321000,0.856321044921875,-0.74462890625,-0.6806640625,-0.0323333740234375
1639426276246284000,0.866283935546875,-0.752532958984375,-0.675750732421875,-0.0355987548828125
1639426276256245800,0.876245849609375,-0.771942138671875,-0.668426513671875,-0.0268402099609375
1639426276266208800,0.886208740234375,-0.7881622314453125,-0.6540679931640625,-0.0149078369140625
1639426276276172000,0.896172119140625,-0.79547119140625,-0.6376190185546875,-0.0135345458984375
1639426276286135000,0.906135009765625,-0.7957763671875,-0.630950927734375,-0.0100555419921875
1639426276296098000,0.91609814453125,-0.791534423828125,-0.635162353515625,-0.0069122314453125
1639426276306059800,0.926059814453125,-0.7818603515625,-0.644622802734375,-0.007537841796875
1639426276316022800,0.936022705078125,-0.76885986328125,-0.65325927734375,-0.0176544189453125
1639426276325985800,0.94598583984375,-0.7561492919921875,-0.6657867431640625,-0.0363922119140625
1639426276335949000,0.955948974609375,-0.74615478515625,-0.6782684326171875,-0.042877197265625
1639426276345912000,0.965912109375,-0.72802734375,-0.686431884765625,-0.0350189208984375
1639426276355874600,0.97587451171875,-0.700531005859375,-0.6913299560546875,-0.020904541015625
1639426276365837600,0.985837646484375,-0.6671600341796875,-0.686004638671875,-0.0015716552734375
1639426276375800600,0.995800537109375,-0.636077880859375,-0.702178955078125,0.002288818359375
1639426276385763600,1.005763671875,-0.61090087890625,-0.7058868408203125,0.0124053955078125
1639426276395725800,1.015725830078125,-0.602630615234375,-0.6988983154296875,0.018096923828125
1639426276405688800,1.025688720703125,-0.6141510009765625,-0.6955718994140625,0.025054931640625
1639426276415651600,1.035651611328125,-0.627410888671875,-0.6885986328125,0.03271484375
1639426276425614600,1.045614501953125,-0.641387939453125,-0.6770172119140625,0.0303955078125
1639426276435577600,1.05557763671875,-0.70660400390625,-0.68304443359375,0.01776123046875
1639426276445539800,1.065539794921875,-0.7421722412109375,-0.701904296875,0.011993408203125
1639426276455502800,1.0755029296875,-0.6566009521484375,-0.6737518310546875,0.0012054443359375
1639426276465465600,1.085465576171875,-0.648712158203125,-0.68939208984375,-0.00042724609375
1639426276475428600,1.0954287109375,-0.680938720703125,-0.7193603515625,0.00921630859375
1639426276485391600,1.1053916015625,-0.6633758544921875,-0.7202911376953125,0.018768310546875
1639426276495353600,1.115353515625,-0.648162841796875,-0.7225341796875,0.0253143310546875
1639426276505316600,1.125316650390625,-0.6550445556640625,-0.7331695556640625,0.0316009521484375
1639426276515279600,1.135279541015625,-0.6522674560546875,-0.732940673828125,0.0391693115234375
1639426276525242600,1.14524267578125,-0.640960693359375,-0.7289276123046875,0.039520263671875
1639426276535205600,1.15520556640625,-0.6341094970703125,-0.7344207763671875,0.0215911865234375
1639426276545167600,1.165167724609375,-0.6409454345703125,-0.7332611083984375,-0.01263427734375
1639426276555130600,1.175130615234375,-0.6570587158203125,-0.730804443359375,-0.046356201171875
1639426276565093600,1.18509375,-0.6760101318359375,-0.7320556640625,-0.0770721435546875
1639426276575056600,1.195056640625,-0.7135772705078125,-0.7247161865234375,-0.0806732177734375
1639426276585019600,1.20501953125,-0.7525787353515625,-0.6920013427734375,-0.065521240234375
1639426276594981600,1.214981689453125,-0.77923583984375,-0.620941162109375,-0.02001953125
1639426276604944600,1.224944580078125,-0.7579498291015625,-0.5841522216796875,0.0559234619140625
1639426276614907600,1.23490771484375,-0.83709716796875,-0.7122955322265625,0.043670654296875
1639426276624870700,1.24487060546875,-0.7483367919921875,-0.69683837890625,-0.01904296875
1639426276634833700,1.254833740234375,-0.65948486328125,-0.7034759521484375,-0.044647216796875
1639426276644795600,1.264795654296875,-0.646514892578125,-0.7527923583984375,-0.0309600830078125
1639426276654758700,1.274758544921875,-0.62353515625,-0.768829345703125,-0.018402099609375
1639426276664721700,1.2847216796875,-0.5968475341796875,-0.76824951171875,0.0008697509765625
1639426276674684700,1.2946845703125,-0.596221923828125,-0.7889862060546875,0.0073699951171875
1639426276684646700,1.304646728515625,-0.6008148193359375,-0.8101959228515625,-0.0126495361328125
1639426276694609700,1.314609619140625,-0.5911102294921875,-0.81787109375,-0.048370361328125
1639426276704572700,1.32457275390625,-0.57257080078125,-0.8147125244140625,-0.0836944580078125
1639426276714535700,1.33453564453125,-0.55377197265625,-0.8218536376953125,-0.1147918701171875
1639426276724498700,1.344498779296875,-0.533416748046875,-0.8288421630859375,-0.134033203125
1639426276734460700,1.354460693359375,-0.515289306640625,-0.827545166015625,-0.1426239013671875
1639426276744423700,1.364423583984375,-0.5118255615234375,-0.8183135986328125,-0.1381683349609375
1639426276754386700,1.37438671875,-0.526336669921875,-0.8028564453125,-0.12200927734375
1639426276764349700,1.384349609375,-0.5401153564453125,-0.774444580078125,-0.1086578369140625
1639426276774312700,1.394312744140625,-0.561553955078125,-0.75164794921875,-0.10211181640625
1639426276784274700,1.404274658203125,-0.592132568359375,-0.7445220947265625,-0.0996856689453125
1639426276794237700,1.41423779296875,-0.625946044921875,-0.7270355224609375,-0.0894927978515625
1639426276804200700,1.42420068359375,-0.6614990234375,-0.71649169921875,-0.0736083984375
1639426276814163700,1.434163818359375,-0.68548583984375,-0.7160797119140625,-0.06793212890625
1639426276824126700,1.444126708984375,-0.704925537109375,-0.6984405517578125,-0.05609130859375
1639426276834088400,1.45408837890625,-0.7287445068359375,-0.68646240234375,-0.0455169677734375
1639426276844051700,1.4640517578125,-0.746368408203125,-0.679901123046875,-0.0385894775390625
1639426276854014700,1.4740146484375,-0.7524566650390625,-0.6707305908203125,-0.0387420654296875
1639426276863977700,1.483977783203125,-0.756072998046875,-0.66070556640625,-0.0417633056640625
1639426276873940700,1.493940673828125,-0.77008056640625,-0.6626129150390625,-0.046173095703125
1639426276883902500,1.50390234375,-0.7896728515625,-0.6591033935546875,-0.0460662841796875
1639426276893865500,1.513865478515625,-0.811553955078125,-0.6486358642578125,-0.0423431396484375
1639426276903828700,1.523828857421875,-0.8293609619140625,-0.63885498046875,-0.04229736328125
1639426276913791700,1.533791748046875,-0.837432861328125,-0.6327667236328125,-0.0462799072265625
1639426276923754800,1.543754638671875,-0.8398284912109375,-0.6328887939453125,-0.0482330322265625
1639426276933716500,1.553716552734375,-0.8364410400390625,-0.633331298828125,-0.044830322265625
1639426276943679500,1.563679443359375,-0.8259429931640625,-0.6382293701171875,-0.04095458984375
1639426276953642500,1.573642578125,-0.8121185302734375,-0.6441650390625,-0.03857421875
1639426276963605800,1.583605712890625,-0.80078125,-0.649871826171875,-0.039031982421875
1639426276973568800,1.59356884765625,-0.7994537353515625,-0.65887451171875,-0.04107666015625
1639426276983530800,1.60353076171875,-0.8039093017578125,-0.67071533203125,-0.0536651611328125
1639426276993493500,1.613493408203125,-0.81317138671875,-0.677459716796875,-0.066436767578125
1639426277003456500,1.62345654296875,-0.8209381103515625,-0.6790313720703125,-0.073089599609375
1639426277013419500,1.63341943359375,-0.822540283203125,-0.6719818115234375,-0.069091796875
1639426277023382800,1.6433828125,-0.823272705078125,-0.6637420654296875,-0.0606231689453125
1639426277033344800,1.6533447265625,-0.8303680419921875,-0.6548309326171875,-0.0510711669921875
1639426277043307500,1.6633076171875,-0.839202880859375,-0.6514434814453125,-0.05322265625
1639426277053270500,1.6732705078125,-0.8386383056640625,-0.6458587646484375,-0.0537261962890625
1639426277063233500,1.683233642578125,-0.833343505859375,-0.6426239013671875,-0.052154541015625
1639426277073196500,1.693196533203125,-0.818817138671875,-0.64215087890625,-0.0500946044921875
1639426277083158800,1.70315869140625,-0.80096435546875,-0.6431121826171875,-0.047454833984375
1639426277093121500,1.71312158203125,-0.782684326171875,-0.6464080810546875,-0.0473785400390625
1639426277103084500,1.72308447265625,-0.76727294921875,-0.6493682861328125,-0.054168701171875
1639426277113047600,1.733047607421875,-0.7629241943359375,-0.6529388427734375,-0.054443359375
1639426277123010600,1.743010498046875,-0.763885498046875,-0.6517333984375,-0.0445556640625
1639426277132972800,1.752972900390625,-0.760467529296875,-0.646392822265625,-0.0357513427734375
1639426277142935800,1.762935791015625,-0.753692626953125,-0.6416778564453125,-0.0289154052734375
1639426277152898600,1.772898681640625,-0.7490997314453125,-0.640289306640625,-0.0198822021484375
1639426277162861600,1.782861572265625,-0.7528533935546875,-0.6363372802734375,-0.0100250244140625
1639426277172823600,1.792823486328125,-0.7628936767578125,-0.6219635009765625,0.0135955810546875
1639426277182786800,1.802786865234375,-0.7703857421875,-0.621002197265625,0.023681640625
1639426277192749800,1.812749755859375,-0.772735595703125,-0.62353515625,0.0107879638671875
1639426277202712600,1.822712646484375,-0.7814788818359375,-0.6234283447265625,-0.0047607421875
1639426277212675600,1.832675537109375,-0.793243408203125,-0.62310791015625,-0.003875732421875
1639426277222638600,1.842638671875,-0.79571533203125,-0.621917724609375,-0.0007476806640625
1639426277232600600,1.8526005859375,-0.7917633056640625,-0.62579345703125,-0.0059356689453125
1639426277242563800,1.862563720703125,-0.789886474609375,-0.631439208984375,-0.014434814453125
1639426277252526800,1.87252685546875,-0.7910003662109375,-0.640106201171875,-0.023529052734375
1639426277262489600,1.882489501953125,-0.78717041015625,-0.6486053466796875,-0.035247802734375
1639426277272451600,1.89245166015625,-0.77520751953125,-0.661529541015625,-0.053009033203125
1639426277282414600,1.90241455078125,-0.7610015869140625,-0.680023193359375,-0.0699615478515625
1639426277292377600,1.912377685546875,-0.7481536865234375,-0.69671630859375,-0.08538818359375
1639426277302340900,1.9223408203125,-0.7376251220703125,-0.714080810546875,-0.0971832275390625
1639426277312303600,1.9323037109375,-0.725494384765625,-0.7265472412109375,-0.1067352294921875
1639426277322266600,1.9422666015625,-0.710418701171875,-0.737640380859375,-0.1175537109375
1639426277332228600,1.952228515625,-0.6722564697265625,-0.7361602783203125,-0.116973876953125
1639426277342191600,1.962191650390625,-0.6282501220703125,-0.7473602294921875,-0.1277313232421875
1639426277352154000,1.972154052734375,-0.629974365234375,-0.7532196044921875,-0.141571044921875
1639426277362117000,1.9821171875,-0.655181884765625,-0.7641143798828125,-0.1318511962890625
1639426277372080000,1.992080078125,-0.661651611328125,-0.7401123046875,-0.108642578125
1639426277382041900,2.002041748046875,-0.66046142578125,-0.714447021484375,-0.07855224609375
1639426277392004900,2.0120048828125,-0.6722564697265625,-0.7099609375,-0.06622314453125
1639426277401968000,2.021968017578125,-0.689117431640625,-0.6950531005859375,-0.058685302734375
1639426277411931100,2.03193115234375,-0.7082061767578125,-0.6782073974609375,-0.0471954345703125
1639426277421894100,2.04189404296875,-0.72412109375,-0.6722869873046875,-0.0389556884765625
1639426277431855900,2.05185595703125,-0.734344482421875,-0.6735076904296875,-0.0416259765625
1639426277441819000,2.06181884765625,-0.7429656982421875,-0.6666107177734375,-0.041778564453125
1639426277451782000,2.071781982421875,-0.7501373291015625,-0.6561737060546875,-0.03289794921875
1639426277461745000,2.081744873046875,-0.757080078125,-0.6566162109375,-0.030364990234375
1639426277471708200,2.091708251953125,-0.75714111328125,-0.660186767578125,-0.0351409912109375
1639426277481670000,2.101669921875,-0.751617431640625,-0.66412353515625,-0.038604736328125
1639426277491633000,2.1116328125,-0.744110107421875,-0.670074462890625,-0.0450286865234375
1639426277501596000,2.121595947265625,-0.737548828125,-0.677520751953125,-0.049041748046875
1639426277511559000,2.131558837890625,-0.7285003662109375,-0.684326171875,-0.0526123046875
1639426277521522000,2.14152197265625,-0.720062255859375,-0.6901397705078125,-0.056488037109375
1639426277531484200,2.151484130859375,-0.724853515625,-0.6896514892578125,-0.0651702880859375
1639426277541447000,2.161447021484375,-0.7436676025390625,-0.6852569580078125,-0.0664825439453125
1639426277551410000,2.171409912109375,-0.763427734375,-0.6753387451171875,-0.061553955078125
1639426277561373000,2.181373046875,-0.7818603515625,-0.667449951171875,-0.0524749755859375
1639426277571336000,2.1913359375,-0.801910400390625,-0.6604156494140625,-0.0487213134765625
1639426277581298200,2.201298095703125,-0.81280517578125,-0.6560211181640625,-0.05401611328125
1639426277591261000,2.211260986328125,-0.8141632080078125,-0.6560821533203125,-0.061431884765625
1639426277601224000,2.221223876953125,-0.802825927734375,-0.6608123779296875,-0.0733795166015625
1639426277611187000,2.23118701171875,-0.7936553955078125,-0.664581298828125,-0.081146240234375
1639426277621150000,2.24114990234375,-0.78216552734375,-0.6669921875,-0.0870361328125
1639426277631112200,2.2511123046875,-0.7682647705078125,-0.6721954345703125,-0.0935211181640625
1639426277641075200,2.2610751953125,-0.750823974609375,-0.6779327392578125,-0.0974273681640625
1639426277651038000,2.271037841796875,-0.73516845703125,-0.6825714111328125,-0.1096954345703125
1639426277661001000,2.2810009765625,-0.7267913818359375,-0.686981201171875,-0.12274169921875
1639426277670964000,2.2909638671875,-0.7215728759765625,-0.6929168701171875,-0.1224365234375
1639426277680926200,2.30092626953125,-0.718536376953125,-0.6983489990234375,-0.122039794921875
1639426277690889200,2.31088916015625,-0.7151947021484375,-0.70159912109375,-0.12579345703125
1639426277700852000,2.32085205078125,-0.717254638671875,-0.7038116455078125,-0.1263885498046875
1639426277710815000,2.33081494140625,-0.7184906005859375,-0.6974334716796875,-0.126434326171875
1639426277720778000,2.340778076171875,-0.7229156494140625,-0.6895294189453125,-0.126861572265625
1639426277730740000,2.350739990234375,-0.730987548828125,-0.682769775390625,-0.1289520263671875
1639426277740703200,2.360703125,-0.73968505859375,-0.6814117431640625,-0.1397857666015625
1639426277750666000,2.370666015625,-0.7505340576171875,-0.6863861083984375,-0.1601715087890625
1639426277760629000,2.38062890625,-0.755859375,-0.690521240234375,-0.1989593505859375
1639426277770592000,2.390592041015625,-0.7465057373046875,-0.693206787109375,-0.2362518310546875
1639426277780554000,2.400553955078125,-0.7318267822265625,-0.6980133056640625,-0.261932373046875
1639426277790517000,2.41051708984375,-0.713897705078125,-0.7068634033203125,-0.2748260498046875
1639426277800480000,2.42047998046875,-0.687103271484375,-0.7205810546875,-0.281463623046875
1639426277810443000,2.430443115234375,-0.6575164794921875,-0.731201171875,-0.2794342041015625
1639426277820406000,2.440406005859375,-0.6325531005859375,-0.7385711669921875,-0.2632598876953125
1639426277830368000,2.450367919921875,-0.6050567626953125,-0.74725341796875,-0.2449798583984375
1639426277840331000,2.4603310546875,-0.5888519287109375,-0.7559661865234375,-0.233428955078125
1639426277850294000,2.4702939453125,-0.5953216552734375,-0.7425079345703125,-0.20330810546875
1639426277860257000,2.480257080078125,-0.5867919921875,-0.686126708984375,-0.1345367431640625
1639426277870220000,2.490219970703125,-0.543487548828125,-0.7925872802734375,-0.1804656982421875
1639426277880182000,2.50018212890625,-0.370025634765625,-0.870941162109375,-0.2537078857421875
1639426277890145000,2.51014501953125,-0.2440032958984375,-0.903778076171875,-0.326904296875
1639426277900108000,2.52010791015625,-0.235595703125,-0.8904571533203125,-0.3516693115234375
1639426277910071000,2.530071044921875,-0.3354034423828125,-0.856781005859375,-0.300689697265625
1639426277920034000,2.540033935546875,-0.4614410400390625,-0.7951202392578125,-0.2316131591796875
1639426277929996000,2.54999609375,-0.5502166748046875,-0.737060546875,-0.19366455078125
1639426277939959000,2.559958984375,-0.6261749267578125,-0.6992950439453125,-0.2043914794921875
1639426277949922000,2.569922119140625,-0.697998046875,-0.684478759765625,-0.2396697998046875
1639426277959885000,2.579885009765625,-0.744384765625,-0.700347900390625,-0.2819366455078125
1639426277969847800,2.589847900390625,-0.729888916015625,-0.73138427734375,-0.278106689453125
1639426277979810000,2.59981005859375,-0.670379638671875,-0.73211669921875,-0.2995147705078125
1639426277989773000,2.60977294921875,-0.614410400390625,-0.75726318359375,-0.3107147216796875
1639426277999736000,2.619736083984375,-0.571502685546875,-0.801727294921875,-0.3323516845703125
1639426278009699000,2.629698974609375,-0.5449371337890625,-0.8282318115234375,-0.3569793701171875
1639426278019661800,2.639661865234375,-0.5290069580078125,-0.84588623046875,-0.3662567138671875
1639426278029624800,2.649624755859375,-0.5229949951171875,-0.8525390625,-0.357391357421875
1639426278039587000,2.659587158203125,-0.5299530029296875,-0.8419342041015625,-0.3326873779296875
1639426278049550000,2.669550048828125,-0.540130615234375,-0.826507568359375,-0.3052520751953125
1639426278059513000,2.67951318359375,-0.5447235107421875,-0.8120269775390625,-0.2866058349609375
1639426278069476000,2.68947607421875,-0.544921875,-0.802764892578125,-0.2765350341796875
1639426278079438800,2.69943896484375,-0.5436553955078125,-0.8021087646484375,-0.26898193359375
1639426278089401000,2.709401123046875,-0.5396575927734375,-0.8043975830078125,-0.2724609375
1639426278099364000,2.719364013671875,-0.5372772216796875,-0.801849365234375,-0.2831878662109375
1639426278109327000,2.7293271484375,-0.5387725830078125,-0.789154052734375,-0.27740478515625
1639426278119290000,2.7392900390625,-0.5339202880859375,-0.7705230712890625,-0.25634765625
1639426278129252900,2.7492529296875,-0.526885986328125,-0.75994873046875,-0.2316436767578125
1639426278139215000,2.759215087890625,-0.53009033203125,-0.74993896484375,-0.2149200439453125
1639426278149178000,2.76917822265625,-0.5331573486328125,-0.7417449951171875,-0.2088470458984375
1639426278159141000,2.77914111328125,-0.5386505126953125,-0.7386627197265625,-0.2128753662109375
1639426278169104100,2.789104248046875,-0.54522705078125,-0.7280731201171875,-0.2176361083984375
1639426278179067100,2.799067138671875,-0.547027587890625,-0.73590087890625,-0.1998291015625
1639426278189028900,2.80902880859375,-0.5471038818359375,-0.7559814453125,-0.1881103515625
1639426278198992100,2.8189921875,-0.5301055908203125,-0.7674713134765625,-0.1897430419921875
1639426278208955100,2.828955078125,-0.51263427734375,-0.77154541015625,-0.2016754150390625
1639426278218918100,2.838918212890625,-0.50616455078125,-0.7504119873046875,-0.2126312255859375
1639426278228881200,2.848881103515625,-0.5082855224609375,-0.739288330078125,-0.2194671630859375
1639426278238843000,2.8588427734375,-0.5241851806640625,-0.7469024658203125,-0.2132568359375
1639426278248806000,2.868805908203125,-0.54412841796875,-0.7533111572265625,-0.1885528564453125
1639426278258769200,2.87876904296875,-0.5644683837890625,-0.75762939453125,-0.1516876220703125
1639426278268732200,2.888732177734375,-0.5917205810546875,-0.7728729248046875,-0.130828857421875
1639426278278695200,2.898695068359375,-0.6378326416015625,-0.7780914306640625,-0.1333160400390625
1639426278288657000,2.908656982421875,-0.6881866455078125,-0.76947021484375,-0.14166259765625
1639426278298620000,2.918619873046875,-0.704315185546875,-0.7662353515625,-0.1600189208984375
1639426278308583000,2.9285830078125,-0.682891845703125,-0.7687530517578125,-0.263946533203125
1639426278318546200,2.938546142578125,-0.646728515625,-0.7945098876953125,-0.437042236328125
1639426278328509200,2.94850927734375,-0.6291351318359375,-0.82135009765625,-0.5641326904296875
1639426278338472200,2.95847216796875,-0.6175537109375,-0.8277587890625,-0.584869384765625
1639426278348434000,2.968433837890625,-0.6204986572265625,-0.799163818359375,-0.525238037109375
1639426278358397000,2.97839697265625,-0.653411865234375,-0.75347900390625,-0.414703369140625
1639426278368359700,2.988359619140625,-0.6868438720703125,-0.707977294921875,-0.297454833984375
1639426278378323000,2.998322998046875,-0.7210235595703125,-0.6802215576171875,-0.1936187744140625
1639426278388286000,3.008285888671875,-0.772979736328125,-0.650726318359375,-0.0759735107421875
1639426278398248000,3.018248046875,-0.8067474365234375,-0.59051513671875,0.070098876953125
1639426278408211000,3.0282109375,-0.8103179931640625,-0.5095062255859375,0.2015533447265625
1639426278418173700,3.038173583984375,-0.7978057861328125,-0.424224853515625,0.236175537109375
1639426278428136700,3.04813671875,-0.7536163330078125,-0.329498291015625,0.1479644775390625
1639426278438100000,3.058099853515625,-0.6537933349609375,-0.237518310546875,0.084228515625
1639426278448062000,3.06806201171875,-0.4754486083984375,-0.095245361328125,-0.005584716796875
1639426278458025000,3.07802490234375,-0.350677490234375,0.024688720703125,-0.337646484375
1639426278467988000,3.087988037109375,-0.3075714111328125,-0.0336456298828125,-0.59100341796875
1639426278477950700,3.09795068359375,-0.171539306640625,-0.1157379150390625,-0.59442138671875
1639426278487913700,3.107913818359375,-0.0063323974609375,-0.135589599609375,-0.59820556640625
1639426278497876000,3.1178759765625,-0.0013427734375,-0.209381103515625,-0.8400421142578125
1639426278507839000,3.1278388671875,0.000732421875,-0.2771759033203125,-0.9468231201171875
1639426278517802000,3.137802001953125,0.120635986328125,-0.219757080078125,-0.8105010986328125
1639426278527764700,3.1477646484375,0.25994873046875,-0.14166259765625,-0.67633056640625
1639426278537727700,3.157727783203125,0.365997314453125,-0.1414642333984375,-0.726898193359375
1639426278547690000,3.16768994140625,0.48065185546875,-0.178192138671875,-0.85369873046875
1639426278557653000,3.177653076171875,0.5851287841796875,-0.2261962890625,-0.9322357177734375
1639426278567616000,3.187615966796875,0.7073211669921875,-0.2637939453125,-0.9193115234375
1639426278577578800,3.197578857421875,0.8449249267578125,-0.325714111328125,-0.929229736328125
1639426278587541800,3.207541748046875,1.1546783447265625,-0.4919586181640625,-0.9680023193359375
1639426278597504000,3.21750390625,1.655303955078125,-0.73577880859375,-0.989227294921875
1639426278607467000,3.227467041015625,2.10504150390625,-0.9375762939453125,-0.9948577880859375
1639426278617430000,3.237429931640625,2.2161865234375,-1.0407867431640625,-1.0257568359375
1639426278627393000,3.24739306640625,1.72039794921875,-0.7892608642578125,-0.9373779296875
1639426278637355800,3.257355712890625,1.2734832763671875,-0.517608642578125,-0.69873046875
1639426278647318800,3.26731884765625,1.1839447021484375,-0.3963165283203125,-0.6473388671875
1639426278657281000,3.277281005859375,1.047271728515625,-0.3480072021484375,-0.6775360107421875
1639426278667244000,3.287244140625,0.7680206298828125,-0.25140380859375,-0.614654541015625
1639426278677207000,3.29720703125,0.6990966796875,-0.1549072265625,-0.553924560546875
1639426278687169800,3.307169677734375,0.7689056396484375,-0.13433837890625,-0.513763427734375
1639426278697132800,3.3171328125,0.8040008544921875,-0.162200927734375,-0.4594879150390625
1639426278707094800,3.3270947265625,0.83154296875,-0.227081298828125,-0.467681884765625
1639426278717058000,3.33705810546875,0.7860107421875,-0.3350372314453125,-0.7243804931640625
1639426278727021000,3.34702099609375,0.52264404296875,-0.3397216796875,-0.993927001953125
1639426278736983800,3.35698388671875,0.21221923828125,-0.2173309326171875,-0.9739532470703125
1639426278746946800,3.36694677734375,0.1731414794921875,0.0003662109375,-0.72174072265625
1639426278756908800,3.37690869140625,0.6868133544921875,0.040771484375,-0.6533966064453125
1639426278766871800,3.386871826171875,0.9921875,0.0395660400390625,-0.7169189453125
1639426278776835000,3.3968349609375,0.9466705322265625,-0.0964202880859375,-0.725372314453125
1639426278786798000,3.406798095703125,0.7908477783203125,0.057525634765625,-0.666168212890625
1639426278796760800,3.4167607421875,0.5846710205078125,0.141937255859375,-0.54034423828125
1639426278806722800,3.426722900390625,0.632232666015625,0.0173492431640625,-0.4970550537109375
1639426278816685800,3.436685791015625,0.716064453125,0.0241241455078125,-0.4630584716796875
1639426278826648800,3.44664892578125,0.813262939453125,-0.04730224609375,-0.567291259765625
1639426278836612000,3.456612060546875,0.7793121337890625,-0.147491455078125,-0.4881744384765625
1639426278846574800,3.466574951171875,0.7118072509765625,-0.167938232421875,-0.5200653076171875
1639426278856536800,3.476536865234375,0.78961181640625,-0.1779327392578125,-0.72918701171875
1639426278866499800,3.486499755859375,0.5924530029296875,-0.18658447265625,-0.8359527587890625
1639426278876462800,3.496462890625,0.483367919921875,-0.1394500732421875,-0.58917236328125
1639426278886425900,3.50642578125,0.5428619384765625,-0.1313934326171875,-0.4089508056640625
1639426278896389000,3.51638916015625,0.8636474609375,-0.165252685546875,-0.7405242919921875
1639426278906350800,3.526350830078125,0.4950408935546875,-0.1971435546875,-0.8198089599609375
1639426278916313900,3.53631396484375,0.4249725341796875,-0.2751617431640625,-0.4200286865234375
1639426278926276900,3.54627685546875,0.7269134521484375,-0.251129150390625,-0.719268798828125
1639426278936239900,3.556239990234375,0.6345367431640625,0.0043792724609375,-0.5976409912109375
1639426278946203000,3.566202880859375,0.475189208984375,-0.0724639892578125,-0.61956787109375
1639426278956164900,3.576164794921875,0.54840087890625,-0.12347412109375,-0.6753997802734375
1639426278966127900,3.5861279296875,0.71966552734375,-0.233551025390625,-0.728729248046875
1639426278976091000,3.5960908203125,0.804107666015625,-0.363525390625,-0.7543487548828125
1639426278986054000,3.606053955078125,0.77581787109375,-0.4447021484375,-0.726531982421875
1639426278996017000,3.616016845703125,0.7615966796875,-0.552978515625,-0.702606201171875
1639426279005980000,3.62597998046875,0.6977386474609375,-0.6934814453125,-0.6639862060546875
1639426279015942000,3.63594189453125,0.6229248046875,-0.7241363525390625,-0.7081756591796875
1639426279025905000,3.64590478515625,0.5095672607421875,-0.701690673828125,-0.6165618896484375
1639426279035868000,3.655867919921875,0.482330322265625,-0.7020111083984375,-0.615936279296875
1639426279045831000,3.665830810546875,0.4442596435546875,-0.72015380859375,-0.6366729736328125
1639426279055794000,3.6757939453125,0.3686676025390625,-0.6598663330078125,-0.6312408447265625
1639426279065756000,3.685755859375,0.4317474365234375,-0.6148681640625,-0.623504638671875
1639426279075719000,3.695718994140625,0.619171142578125,-0.5858917236328125,-0.6160736083984375
1639426279085682000,3.705681884765625,0.674530029296875,-0.6389923095703125,-0.672698974609375
1639426279095645000,3.71564501953125,0.67864990234375,-0.657989501953125,-0.7872161865234375
1639426279105608000,3.72560791015625,0.7269744873046875,-0.648040771484375,-0.7073822021484375
1639426279115570000,3.73556982421875,0.6611785888671875,-0.565826416015625,-0.5793609619140625
1639426279125533000,3.745532958984375,0.574737548828125,-0.8182220458984375,-0.654266357421875
1639426279135496000,3.755495849609375,0.4944915771484375,-0.6942901611328125,-0.63677978515625
1639426279145459000,3.765458984375,0.4058380126953125,-0.661773681640625,-0.5984344482421875
1639426279155422000,3.775421875,0.4080352783203125,-0.774627685546875,-0.629974365234375
1639426279165384000,3.785384033203125,0.429443359375,-0.80682373046875,-0.6163482666015625
1639426279175347000,3.795346923828125,0.5535430908203125,-0.9156341552734375,-0.637420654296875
1639426279185310000,3.80531005859375,0.664398193359375,-0.9743194580078125,-0.5652618408203125
1639426279195273000,3.81527294921875,0.691192626953125,-1.04132080078125,-0.474945068359375
1639426279205236000,3.825236083984375,0.7432861328125,-0.9747467041015625,-0.49993896484375
1639426279215197700,3.83519775390625,0.73565673828125,-0.94024658203125,-0.3840789794921875
1639426279225161000,3.845160888671875,0.6894989013671875,-0.8489532470703125,-0.3364715576171875
1639426279235124000,3.8551240234375,0.6192626953125,-0.7016143798828125,-0.3104248046875
1639426279245087000,3.8650869140625,0.527130126953125,-0.5904541015625,-0.22845458984375
1639426279255050000,3.875050048828125,0.4046478271484375,-0.487274169921875,-0.14141845703125
1639426279265011700,3.88501171875,0.4309234619140625,-0.4253082275390625,-0.069366455078125
1639426279274974700,3.894974609375,0.4723968505859375,-0.3787994384765625,-0.1123199462890625
1639426279284938000,3.90493798828125,0.5854339599609375,-0.331756591796875,-0.2041168212890625
1639426279294901000,3.91490087890625,0.7322845458984375,-0.3089141845703125,-0.3706512451171875
1639426279304864000,3.924864013671875,0.7605743408203125,-0.3837890625,-0.5027008056640625
1639426279314826000,3.934825927734375,0.8195037841796875,-0.3778228759765625,-0.6490936279296875
1639426279324788700,3.944788818359375,0.8806304931640625,-0.2703094482421875,-0.6053924560546875
1639426279334751700,3.954751708984375,0.8593292236328125,-0.2518463134765625,-0.4593963623046875
1639426279344714800,3.96471484375,0.616790771484375,-0.23193359375,-0.4184112548828125
1639426279354678000,3.974677978515625,0.534515380859375,-0.2848358154296875,-0.5092620849609375
1639426279364640000,3.984639892578125,0.614410400390625,-0.299530029296875,-0.6125946044921875
1639426279374602800,3.994602783203125,0.7266082763671875,-0.3504791259765625,-0.6651458740234375
1639426279384565800,4.004565673828125,0.778167724609375,-0.38946533203125,-0.6842803955078125
1639426279394528800,4.01452880859375,0.766937255859375,-0.374603271484375,-0.6632537841796875
1639426279404491800,4.02449169921875,0.711029052734375,-0.380828857421875,-0.6653900146484375
1639426279414454000,4.0344541015625,0.6380615234375,-0.4237823486328125,-0.63934326171875
1639426279424416800,4.044416748046875,0.584625244140625,-0.4340972900390625,-0.6359710693359375
1639426279434379800,4.0543798828125,0.5445098876953125,-0.45111083984375,-0.657501220703125
1639426279444342800,4.0643427734375,0.54638671875,-0.443084716796875,-0.6109771728515625
1639426279454305800,4.074305908203125,0.5490570068359375,-0.4133758544921875,-0.594879150390625
1639426279464268000,4.08426806640625,0.5516815185546875,-0.4527130126953125,-0.6589508056640625
1639426279474231000,4.09423095703125,0.5383453369140625,-0.5122222900390625,-0.6695556640625
1639426279484193800,4.10419384765625,0.3503875732421875,-0.489166259765625,-0.5479583740234375
1639426279494156800,4.11415673828125,0.3297882080078125,-0.5341644287109375,-0.5789031982421875
1639426279504119800,4.124119873046875,0.2176513671875,-0.8630523681640625,-0.733612060546875
1639426279514082000,4.13408203125,0.1724395751953125,-0.9521484375,-0.6067962646484375
1639426279524045000,4.144045166015625,0.4483795166015625,-0.9796142578125,0.5254974365234375
1639426279534007800,4.1540078125,0.845428466796875,-0.920867919921875,-0.0290679931640625
1639426279543970800,4.163970703125,1.0803070068359375,-0.68487548828125,-0.87628173828125
1639426279553933800,4.173933837890625,0.8115234375,-0.4417724609375,-0.832672119140625
1639426279563896000,4.18389599609375,0.53997802734375,-0.38720703125,-0.5539398193359375
1639426279573859000,4.193859130859375,0.4262542724609375,-0.4905242919921875,-0.6782073974609375
1639426279583822000,4.203822021484375,0.420684814453125,-0.53924560546875,-0.7960968017578125
1639426279593784800,4.213784912109375,0.4893798828125,-0.5296173095703125,-0.6835784912109375
1639426279603747800,4.223747802734375,0.59466552734375,-0.480743408203125,-0.604522705078125
1639426279613709800,4.233709716796875,0.6757354736328125,-0.4756622314453125,-0.616607666015625
1639426279623673000,4.243673095703125,0.6208038330078125,-0.687164306640625,-0.65777587890625
1639426279633636000,4.253635986328125,0.481781005859375,-0.7907257080078125,-0.6589813232421875
1639426279643598800,4.263598876953125,0.435302734375,-0.6262359619140625,-0.6682586669921875
1639426279653561900,4.273561767578125,0.528228759765625,-0.410064697265625,-0.6606903076171875
1639426279663523800,4.28352392578125,0.634063720703125,-0.32183837890625,-0.6731414794921875
1639426279673486800,4.29348681640625,0.6348724365234375,-0.3137664794921875,-0.7290802001953125
1639426279683449900,4.303449951171875,0.5542755126953125,-0.3380279541015625,-0.7399139404296875
1639426279693412900,4.313412841796875,0.50799560546875,-0.4026947021484375,-0.717926025390625
1639426279703376000,4.3233759765625,0.534912109375,-0.456878662109375,-0.6931610107421875
1639426279713337900,4.333337890625,0.587158203125,-0.4802703857421875,-0.653594970703125
1639426279723300900,4.34330078125,0.5831756591796875,-0.5568084716796875,-0.60382080078125
1639426279733264000,4.353263916015625,0.57806396484375,-0.6725921630859375,-0.5867919921875
1639426279743227000,4.363226806640625,0.5788726806640625,-0.6775665283203125,-0.6152496337890625
1639426279753190000,4.37318994140625,0.578155517578125,-0.5839691162109375,-0.6910400390625
1639426279763152000,4.38315185546875,0.5949554443359375,-0.4920806884765625,-0.7345123291015625
1639426279773115000,4.393114990234375,0.5941925048828125,-0.4970550537109375,-0.7312469482421875
1639426279783078000,4.403077880859375,0.5859832763671875,-0.5200347900390625,-0.6738433837890625
1639426279793041000,4.413041015625,0.5910797119140625,-0.5404205322265625,-0.6204376220703125
1639426279803004000,4.42300390625,0.5823211669921875,-0.60369873046875,-0.57830810546875
1639426279812966000,4.4329658203125,0.57196044921875,-0.5896148681640625,-0.530975341796875
1639426279822929000,4.442928955078125,0.578338623046875,-0.61334228515625,-0.630828857421875
1639426279832892000,4.452891845703125,0.5532379150390625,-0.6535797119140625,-0.6456451416015625
1639426279842855000,4.46285498046875,0.5188751220703125,-0.6661529541015625,-0.62152099609375
1639426279852818000,4.47281787109375,0.5192413330078125,-0.6666412353515625,-0.590087890625
1639426279862780000,4.48277978515625,0.554779052734375,-0.6934814453125,-0.5818634033203125
1639426279872743000,4.492742919921875,0.5662078857421875,-0.6914825439453125,-0.5887603759765625
1639426279882706000,4.502705810546875,0.5554656982421875,-0.689453125,-0.6060791015625
1639426279892669000,4.5126689453125,0.5306854248046875,-0.692596435546875,-0.625885009765625
1639426279902632000,4.5226318359375,0.5542449951171875,-0.668701171875,-0.6137847900390625
1639426279912594000,4.532593994140625,0.5869140625,-0.625579833984375,-0.5762481689453125
1639426279922557000,4.542556884765625,0.597137451171875,-0.61749267578125,-0.536956787109375
1639426279932520000,4.55252001953125,0.57720947265625,-0.6570587158203125,-0.5323944091796875
1639426279942483000,4.56248291015625,0.536712646484375,-0.72991943359375,-0.58502197265625
1639426279952446000,4.572446044921875,0.513885498046875,-0.7775115966796875,-0.647979736328125
1639426279962408000,4.582407958984375,0.523101806640625,-0.7494659423828125,-0.6763153076171875
1639426279972371000,4.592370849609375,0.55731201171875,-0.6486663818359375,-0.65484619140625
1639426279982334000,4.602333984375,0.598785400390625,-0.5530548095703125,-0.5611419677734375
1639426279992297000,4.612296875,0.6439056396484375,-0.538330078125,-0.4758148193359375
1639426280002260000,4.622260009765625,0.6787261962890625,-0.5677947998046875,-0.42681884765625
1639426280012221700,4.6322216796875,0.6704254150390625,-0.6725006103515625,-0.404388427734375
1639426280022185000,4.64218505859375,0.5988616943359375,-0.806732177734375,-0.4136962890625
1639426280032148000,4.65214794921875,0.5016021728515625,-0.8512725830078125,-0.4515838623046875
1639426280042111000,4.662111083984375,0.421356201171875,-0.75830078125,-0.473175048828125
1639426280052074000,4.672073974609375,0.4068603515625,-0.5966339111328125,-0.4516448974609375
1639426280062035700,4.68203564453125,0.4360504150390625,-0.510406494140625,-0.3871612548828125
1639426280071998700,4.691998779296875,0.520538330078125,-0.468353271484375,-0.359405517578125
1639426280081962000,4.7019619140625,0.6155242919921875,-0.4658203125,-0.3113555908203125
1639426280091925000,4.711925048828125,0.6941680908203125,-0.4731903076171875,-0.293731689453125
1639426280101888000,4.721887939453125,0.6958465576171875,-0.545654296875,-0.3270263671875
1639426280111849700,4.731849609375,0.6461334228515625,-0.5880584716796875,-0.4364013671875
1639426280121812700,4.741812744140625,0.5415802001953125,-0.6178436279296875,-0.5041961669921875
1639426280131775700,4.751775634765625,0.3908538818359375,-0.68182373046875,-0.5172119140625
1639426280141739000,4.761739013671875,0.1884002685546875,-0.7661285400390625,-0.489227294921875
1639426280151702000,4.771701904296875,0.160400390625,-0.7469024658203125,-0.3534393310546875
1639426280161664000,4.7816640625,0.208709716796875,-0.7394866943359375,-0.3377838134765625
1639426280171626800,4.791626708984375,0.30914306640625,-0.68206787109375,-0.2894744873046875
1639426280181589800,4.80158984375,0.4509124755859375,-0.66424560546875,-0.232879638671875
1639426280191552800,4.811552734375,0.6257476806640625,-0.7166595458984375,-0.3771209716796875
1639426280201516000,4.82151611328125,0.860992431640625,-0.7379913330078125,-0.5277099609375
1639426280211478000,4.83147802734375,1.0323333740234375,-0.7678375244140625,-0.6847991943359375
1639426280221440800,4.841440673828125,1.121978759765625,-0.7435302734375,-0.70733642578125
1639426280231403800,4.85140380859375,1.0012054443359375,-0.489837646484375,-0.639251708984375
1639426280241366800,4.86136669921875,0.71875,-0.2975006103515625,-0.550140380859375
1639426280251329800,4.871329833984375,0.6708984375,-0.102813720703125,-0.5731658935546875
1639426280261292000,4.8812919921875,0.911773681640625,0.036773681640625,-0.6242523193359375
1639426280271254800,4.8912548828125,1.2308807373046875,0.069671630859375,-0.5523529052734375
1639426280281217800,4.9012177734375,1.289306640625,0.008209228515625,-0.290740966796875
1639426280291180800,4.911180908203125,1.09027099609375,-0.122283935546875,-0.0739288330078125
1639426280301143800,4.921143798828125,0.822845458984375,-0.30596923828125,-0.0411224365234375
1639426280311106000,4.93110595703125,0.626953125,-0.5372161865234375,-0.175567626953125
1639426280321069000,4.941069091796875,0.563507080078125,-0.658447265625,-0.3604278564453125
1639426280331031800,4.95103173828125,0.6465911865234375,-0.48175048828125,-0.5138702392578125
1639426280340994800,4.960994873046875,0.7508544921875,-0.2640838623046875,-0.5785980224609375
1639426280350957800,4.970957763671875,0.8427886962890625,-0.275543212890625,-0.620086669921875
1639426280360920000,4.980920166015625,0.8497161865234375,-0.409393310546875,-0.6722412109375
1639426280370883300,4.99088330078125,0.772552490234375,-0.46063232421875,-0.702972412109375
1639426280380846300,5.000846435546875,0.712493896484375,-0.5121917724609375,-0.6452178955078125
1639426280390809300,5.010809326171875,0.69140625,-0.5967864990234375,-0.4643096923828125
1639426280400772400,5.0207724609375,0.723846435546875,-0.786834716796875,-0.247650146484375
1639426280410734000,5.030734130859375,0.7462005615234375,-0.87127685546875,-0.086517333984375
1639426280420697000,5.040697021484375,0.7740936279296875,-0.8169708251953125,-0.00439453125
1639426280430660400,5.050660400390625,0.8447723388671875,-0.6632232666015625,0.02655029296875
1639426280440623400,5.060623291015625,0.85626220703125,-0.6138763427734375,0.1055755615234375
1639426280450586400,5.07058642578125,0.7936553955078125,-0.6761932373046875,0.2607421875
1639426280460548000,5.080548095703125,0.6663055419921875,-0.470428466796875,0.283447265625
1639426280470511000,5.090510986328125,0.869171142578125,-0.5620269775390625,0.067962646484375
1639426280480474000,5.10047412109375,1.1383056640625,-0.409576416015625,-0.3029022216796875
1639426280490437400,5.110437255859375,1.3702850341796875,0.0041656494140625,-0.5469818115234375
1639426280500400400,5.120400390625,1.255767822265625,0.0221099853515625,-0.53326416015625
1639426280510362400,5.1303623046875,1.2816619873046875,0.3173370361328125,-0.35205078125
1639426280520325000,5.1403251953125,1.0514678955078125,0.6197052001953125,-0.0618896484375
1639426280530288000,5.1502880859375,0.803070068359375,0.46490478515625,-0.0478057861328125
1639426280540251100,5.160251220703125,0.67578125,0.3012237548828125,-0.1242828369140625
1639426280550214400,5.17021435546875,0.7928619384765625,0.240264892578125,-0.4151611328125
1639426280560176400,5.18017626953125,0.93359375,0.219390869140625,-0.7385711669921875
1639426280570139100,5.19013916015625,0.968719482421875,0.16082763671875,-0.8923187255859375
1639426280580102100,5.20010205078125,0.9246063232421875,0.1230010986328125,-0.675811767578125
1639426280590065200,5.210065185546875,0.8988494873046875,0.0761871337890625,-0.3688201904296875
1639426280600028200,5.220028076171875,0.918548583984375,-0.0830535888671875,-0.2091827392578125
1639426280609990400,5.229990478515625,0.9155426025390625,-0.154266357421875,-0.124908447265625
1639426280619953200,5.239953125,0.8941497802734375,-0.10821533203125,-0.1423187255859375
1639426280629916200,5.249916259765625,0.8896942138671875,-0.28643798828125,-0.15838623046875
1639426280639879200,5.259879150390625,0.9754638671875,-0.6020965576171875,-0.1694183349609375
1639426280649842200,5.26984228515625,0.9794769287109375,-0.55914306640625,-0.2420196533203125
1639426280659804400,5.279804443359375,0.9654693603515625,-0.3517608642578125,-0.2960662841796875
1639426280669767400,5.289767333984375,0.94818115234375,-0.1594390869140625,-0.3384246826171875
1639426280679730200,5.299730224609375,0.8965301513671875,-0.0025482177734375,-0.37164306640625
1639426280689693200,5.309693115234375,0.823516845703125,0.1192779541015625,-0.3991851806640625
1639426280699656200,5.31965625,0.81585693359375,0.1448822021484375,-0.410675048828125
1639426280709619200,5.329619140625,0.843048095703125,0.092376708984375,-0.40899658203125
1639426280719581400,5.33958154296875,0.8664093017578125,0.01123046875,-0.386016845703125
1639426280729544200,5.349544189453125,0.8977203369140625,-0.055755615234375,-0.383087158203125
1639426280739507200,5.359507080078125,0.9115142822265625,-0.1177520751953125,-0.4029998779296875
1639426280749470200,5.36947021484375,0.8935699462890625,-0.18939208984375,-0.3831024169921875
1639426280759433200,5.37943310546875,0.8132476806640625,-0.2777252197265625,-0.3489990234375
1639426280769395500,5.3893955078125,0.793914794921875,-0.3708343505859375,-0.294189453125
1639426280779358500,5.3993583984375,0.78271484375,-0.46966552734375,-0.2708587646484375
1639426280789321200,5.4093212890625,0.766845703125,-0.5606689453125,-0.2739105224609375
1639426280799284200,5.4192841796875,0.76025390625,-0.5936126708984375,-0.2919769287109375
1639426280809247200,5.429247314453125,0.736968994140625,-0.6116180419921875,-0.361236572265625
1639426280819209200,5.439209228515625,0.7242889404296875,-0.5978240966796875,-0.4479217529296875
1639426280829172500,5.44917236328125,0.700897216796875,-0.55389404296875,-0.518524169921875
1639426280839135200,5.45913525390625,0.6815643310546875,-0.4802703857421875,-0.553131103515625
1639426280849098200,5.46909814453125,0.6944427490234375,-0.417938232421875,-0.5670928955078125
1639426280859061200,5.479061279296875,0.731353759765625,-0.375762939453125,-0.58837890625
1639426280869023200,5.489023193359375,0.7888031005859375,-0.356597900390625,-0.599700927734375
1639426280878986200,5.498986328125,0.84515380859375,-0.3550567626953125,-0.596466064453125
1639426280888949200,5.50894921875,0.9180908203125,-0.3431243896484375,-0.5804595947265625
1639426280898912300,5.518912353515625,0.9786376953125,-0.331634521484375,-0.5447235107421875
1639426280908875300,5.528875244140625,0.9877777099609375,-0.341217041015625,-0.4882659912109375
1639426280918837200,5.538837158203125,0.9371795654296875,-0.3341522216796875,-0.4496002197265625
1639426280928800300,5.54880029296875,0.8512420654296875,-0.3230438232421875,-0.429229736328125
1639426280938763300,5.55876318359375,0.7686614990234375,-0.31585693359375,-0.424072265625
1639426280948726300,5.568726318359375,0.706329345703125,-0.314117431640625,-0.436676025390625
1639426280958689300,5.578689208984375,0.6608734130859375,-0.3101348876953125,-0.457550048828125
1639426280968651300,5.5886513671875,0.6327362060546875,-0.307769775390625,-0.47308349609375
1639426280978614300,5.5986142578125,0.6147308349609375,-0.3060760498046875,-0.4845733642578125
1639426280988577300,5.608577392578125,0.610198974609375,-0.3105926513671875,-0.491058349609375
1639426280998540300,5.618540283203125,0.61090087890625,-0.322967529296875,-0.494873046875
1639426281008503300,5.62850341796875,0.6232452392578125,-0.330780029296875,-0.486175537109375
1639426281018465300,5.63846533203125,0.6496124267578125,-0.3342437744140625,-0.4673004150390625
1639426281028428300,5.64842822265625,0.6837921142578125,-0.3341217041015625,-0.4322662353515625
1639426281038391300,5.658391357421875,0.71844482421875,-0.318023681640625,-0.3892974853515625
1639426281048354300,5.668354248046875,0.7498016357421875,-0.2790985107421875,-0.3472747802734375
1639426281058317300,5.6783173828125,0.7664642333984375,-0.2344512939453125,-0.30609130859375
1639426281068279300,5.688279296875,0.7640838623046875,-0.189178466796875,-0.2954864501953125
1639426281078242300,5.6982421875,0.7515106201171875,-0.1537322998046875,-0.3206024169921875
1639426281088205300,5.708205322265625,0.73974609375,-0.127471923828125,-0.386932373046875
1639426281098168300,5.718168212890625,0.719818115234375,-0.1067352294921875,-0.48016357421875
1639426281108131000,5.728131103515625,0.698272705078125,-0.094329833984375,-0.569549560546875
1639426281118093300,5.73809326171875,0.6717529296875,-0.0908050537109375,-0.6486053466796875
1639426281128056300,5.748056396484375,0.63665771484375,-0.091552734375,-0.70587158203125
1639426281138019300,5.758019287109375,0.6042633056640625,-0.0875091552734375,-0.749603271484375
1639426281147982300,5.767982421875,0.5777130126953125,-0.0833282470703125,-0.7894287109375
1639426281157945000,5.777945068359375,0.550201416015625,-0.083984375,-0.845306396484375
1639426281167908000,5.787908203125,0.52960205078125,-0.0795135498046875,-0.8857574462890625
1639426281177870300,5.797870361328125,0.5384368896484375,-0.0813751220703125,-0.930419921875
1639426281187833300,5.807833251953125,0.5567626953125,-0.1141510009765625,-1.022216796875
1639426281197796400,5.81779638671875,0.5718536376953125,-0.188812255859375,-1.1455230712890625
1639426281207759400,5.82775927734375,0.568389892578125,-0.290008544921875,-1.2699737548828125
1639426281217722000,5.83772216796875,0.543914794921875,-0.41363525390625,-1.3672332763671875
1639426281227684400,5.847684326171875,0.4813995361328125,-0.485626220703125,-1.3574066162109375
1639426281237647400,5.8576474609375,0.416259765625,-0.4309234619140625,-1.2082672119140625
1639426281247610400,5.8676103515625,0.362457275390625,-0.311431884765625,-1.0578460693359375
1639426281257573400,5.877573486328125,0.295928955078125,-0.236663818359375,-0.9933319091796875
1639426281267536100,5.8875361328125,0.2265167236328125,-0.2061920166015625,-0.951873779296875
1639426281277498400,5.897498291015625,0.1850128173828125,-0.2133026123046875,-0.93743896484375
1639426281287461400,5.90746142578125,0.19281005859375,-0.21917724609375,-0.9488983154296875
1639426281297424400,5.91742431640625,0.230987548828125,-0.2228240966796875,-0.9725799560546875
1639426281307387400,5.927387451171875,0.2624969482421875,-0.24774169921875,-1.032135009765625
1639426281317350400,5.937350341796875,0.26641845703125,-0.268310546875,-1.0845947265625
1639426281327312100,5.94731201171875,0.2646331787109375,-0.2664794921875,-1.1180419921875
1639426281337275400,5.957275390625,0.267333984375,-0.2609405517578125,-1.1296234130859375
1639426281347238400,5.96723828125,0.25897216796875,-0.259124755859375,-1.1219482421875
1639426281357201200,5.977201171875,0.2449493408203125,-0.2376708984375,-1.096649169921875
1639426281367164200,5.9871640625,0.234344482421875,-0.2174224853515625,-1.0704803466796875
1639426281377126000,5.9971259765625,0.224517822265625,-0.20672607421875,-1.026092529296875
1639426281387089000,6.0070888671875,0.222412109375,-0.186920166015625,-0.997344970703125
1639426281397052200,6.01705224609375,0.2402191162109375,-0.1691741943359375,-0.96881103515625
1639426281407015200,6.02701513671875,0.2558441162109375,-0.15509033203125,-0.9396514892578125
1639426281416978200,6.036978271484375,0.27642822265625,-0.1461944580078125,-0.9216766357421875
1639426281426940000,6.04693994140625,0.31121826171875,-0.1595001220703125,-0.929931640625
1639426281436903000,6.05690283203125,0.3466949462890625,-0.1796112060546875,-0.951080322265625
1639426281446866000,6.066865966796875,0.37286376953125,-0.19140625,-0.96490478515625
1639426281456829200,6.0768291015625,0.3833770751953125,-0.191741943359375,-0.9641571044921875
1639426281466792200,6.086792236328125,0.3827362060546875,-0.1900177001953125,-0.9607391357421875
1639426281476754000,6.09675390625,0.38238525390625,-0.200775146484375,-0.950531005859375
1639426281486717000,6.106717041015625,0.3686676025390625,-0.21026611328125,-0.9389495849609375
1639426281496680000,6.116679931640625,0.3463287353515625,-0.21575927734375,-0.9358673095703125
1639426281506643000,6.126642822265625,0.322479248046875,-0.2198486328125,-0.9447021484375
1639426281516606200,6.136606201171875,0.303619384765625,-0.219207763671875,-0.9622955322265625
1639426281526568000,6.14656787109375,0.2949981689453125,-0.211578369140625,-0.9836578369140625
1639426281536531000,6.156531005859375,0.282470703125,-0.1991424560546875,-1.00439453125
1639426281546494000,6.166493896484375,0.2746124267578125,-0.184295654296875,-1.023101806640625
1639426281556457000,6.17645703125,0.2765655517578125,-0.1729888916015625,-1.0381927490234375
1639426281566420000,6.186419921875,0.291229248046875,-0.1626434326171875,-1.0553131103515625
1639426281576382000,6.1963818359375,0.34100341796875,-0.143585205078125,-1.069732666015625
1639426281586345000,6.206344970703125,0.4155426025390625,-0.12347412109375,-1.060821533203125
1639426281596308000,6.216307861328125,0.500946044921875,-0.11907958984375,-1.0285797119140625
1639426281606271000,6.22627099609375,0.5946807861328125,-0.132965087890625,-1.0038909912109375
1639426281616234000,6.23623388671875,0.6898956298828125,-0.148468017578125,-0.992584228515625
1639426281626196000,6.246196044921875,0.7440032958984375,-0.1634979248046875,-0.9937896728515625
1639426281636159000,6.256158935546875,0.77276611328125,-0.1775665283203125,-1.0049285888671875
1639426281646122000,6.2661220703125,0.7964630126953125,-0.2008056640625,-1.0214080810546875
1639426281656085000,6.2760849609375,0.8062896728515625,-0.229827880859375,-1.0345916748046875
1639426281666048000,6.286048095703125,0.712646484375,-0.266815185546875,-1.0063018798828125
1639426281676010200,6.29601025390625,0.5566253662109375,-0.3187408447265625,-0.940673828125
1639426281685973000,6.305972900390625,0.448944091796875,-0.365875244140625,-0.8460693359375
1639426281695936000,6.31593603515625,0.4169464111328125,-0.404144287109375,-0.7059783935546875
1639426281705899000,6.32589892578125,0.4046783447265625,-0.451202392578125,-0.5550537109375
1639426281715862000,6.335862060546875,0.386505126953125,-0.5047149658203125,-0.443603515625
1639426281725825000,6.345824951171875,0.3679962158203125,-0.5306549072265625,-0.3835601806640625
1639426281735787000,6.355787109375,0.3721160888671875,-0.543609619140625,-0.362457275390625
1639426281745750000,6.36575,0.4125823974609375,-0.53472900390625,-0.3818359375
1639426281755713000,6.375713134765625,0.4695587158203125,-0.5009765625,-0.420379638671875
1639426281765676000,6.385676025390625,0.5153045654296875,-0.4445343017578125,-0.4366607666015625
1639426281775639000,6.39563916015625,0.518768310546875,-0.372406005859375,-0.4143218994140625
1639426281785601000,6.40560107421875,0.497955322265625,-0.2993316650390625,-0.35015869140625
1639426281795564000,6.41556396484375,0.5125274658203125,-0.23126220703125,-0.2738037109375
1639426281805527000,6.425527099609375,0.5607452392578125,-0.190765380859375,-0.23095703125
1639426281815490000,6.435489990234375,0.6576690673828125,-0.176544189453125,-0.25299072265625
1639426281825453000,6.445453125,0.76910400390625,-0.168853759765625,-0.291961669921875
1639426281835415000,6.4554150390625,0.835723876953125,-0.1790313720703125,-0.3376007080078125
1639426281845378000,6.4653779296875,0.8716583251953125,-0.1961822509765625,-0.4082183837890625
1639426281855341000,6.475341064453125,0.9102325439453125,-0.217681884765625,-0.499755859375
1639426281865304000,6.485303955078125,0.94439697265625,-0.249267578125,-0.58795166015625
1639426281875267000,6.49526708984375,0.96649169921875,-0.286468505859375,-0.661712646484375
1639426281885229000,6.50522900390625,0.9696502685546875,-0.32470703125,-0.7368316650390625
1639426281895191800,6.51519189453125,0.9553680419921875,-0.3531494140625,-0.79254150390625
1639426281905154800,6.52515478515625,0.936767578125,-0.357025146484375,-0.8153228759765625
1639426281915118000,6.5351181640625,0.903961181640625,-0.3430633544921875,-0.82000732421875
1639426281925081000,6.5450810546875,0.8639678955078125,-0.3314361572265625,-0.8149566650390625
1639426281935043000,6.55504296875,0.81591796875,-0.321502685546875,-0.814361572265625
1639426281945006000,6.565006103515625,0.778228759765625,-0.3035430908203125,-0.8427886962890625
1639426281954968800,6.57496875,0.7561492919921875,-0.2677154541015625,-0.91571044921875
1639426281964931800,6.584931884765625,0.702972412109375,-0.225372314453125,-1.016998291015625
1639426281974895000,6.59489501953125,0.6543426513671875,-0.1907196044921875,-1.1688232421875
1639426281984857000,6.604857177734375,0.66864013671875,-0.1354522705078125,-1.31439208984375
1639426281994820000,6.614820068359375,0.68927001953125,-0.0329132080078125,-1.3896636962890625
1639426282004782800,6.624782958984375,0.6907196044921875,0.0972442626953125,-1.320892333984375
1639426282014745900,6.634745849609375,0.6548919677734375,0.187652587890625,-1.0835418701171875
1639426282024708900,6.644708984375,0.5621185302734375,0.17144775390625,-0.805694580078125
1639426282034672000,6.654672119140625,0.430328369140625,0.103271484375,-0.6739044189453125
1639426282044634000,6.664634033203125,0.28656005859375,0.0561676025390625,-0.6614990234375
1639426282054597000,6.67459716796875,0.1957244873046875,0.05767822265625,-0.6204833984375
1639426282064559900,6.684559814453125,0.1735687255859375,0.0580291748046875,-0.5996246337890625
1639426282074523000,6.69452294921875,0.218475341796875,0.014678955078125,-0.6436614990234375
1639426282084485000,6.704485107421875,0.323486328125,-0.0271759033203125,-0.6379241943359375
1639426282094447000,6.714447021484375,0.41986083984375,-0.087799072265625,-0.5655975341796875
1639426282104409900,6.724409912109375,0.4918212890625,-0.1638031005859375,-0.476593017578125
1639426282114372900,6.734372802734375,0.55328369140625,-0.2324371337890625,-0.412689208984375
1639426282124336000,6.744336181640625,0.589599609375,-0.274932861328125,-0.3591461181640625
1639426282134299100,6.754299072265625,0.6192169189453125,-0.28326416015625,-0.3218536376953125
1639426282144261000,6.76426123046875,0.6809539794921875,-0.235687255859375,-0.329315185546875
1639426282154223900,6.774223876953125,0.7464447021484375,-0.1559295654296875,-0.370330810546875
1639426282164187000,6.784186767578125,0.785888671875,-0.1152801513671875,-0.42901611328125
1639426282174150000,6.79414990234375,0.7869110107421875,-0.12628173828125,-0.5030670166015625
1639426282184113200,6.804113037109375,0.77020263671875,-0.1555938720703125,-0.5879669189453125
1639426282194075100,6.8140751953125,0.75347900390625,-0.1811370849609375,-0.6843414306640625
1639426282204038000,6.824037841796875,0.7399444580078125,-0.2129364013671875,-0.778228759765625
1639426282214001000,6.8340009765625,0.719146728515625,-0.2545166015625,-0.8509674072265625
1639426282223964000,6.8439638671875,0.6930084228515625,-0.2895050048828125,-0.894439697265625
1639426282233927000,6.853927001953125,0.667388916015625,-0.332916259765625,-0.9085540771484375
1639426282243889200,6.86388916015625,0.648590087890625,-0.3999176025390625,-0.9051361083984375
1639426282253852200,6.87385205078125,0.638458251953125,-0.4664459228515625,-0.8940887451171875
1639426282263815000,6.88381494140625,0.6382904052734375,-0.5161590576171875,-0.867919921875
1639426282273778000,6.89377783203125,0.6464691162109375,-0.5519561767578125,-0.8305816650390625
1639426282283741000,6.903740966796875,0.6529541015625,-0.591064453125,-0.8065948486328125
1639426282293703200,6.913703125,0.64959716796875,-0.6307220458984375,-0.8020172119140625
1639426282303666200,6.923666259765625,0.621429443359375,-0.6609344482421875,-0.7999114990234375
1639426282313629000,6.93362890625,0.56353759765625,-0.682861328125,-0.7843780517578125
1639426282323592000,6.943592041015625,0.4970550537109375,-0.6897125244140625,-0.7596588134765625
1639426282333555000,6.953554931640625,0.4391937255859375,-0.69403076171875,-0.7277679443359375
1639426282343517200,6.96351708984375,0.40985107421875,-0.706390380859375,-0.6936798095703125
1639426282353480200,6.973480224609375,0.399566650390625,-0.712158203125,-0.6741485595703125
1639426282363443700,6.983443603515625,0.3774261474609375,-0.7039337158203125,-0.642669677734375
1639426282373406700,6.99340673828125,0.348419189453125,-0.6814117431640625,-0.61956787109375
1639426282383369700,7.00336962890625,0.3188629150390625,-0.6406402587890625,-0.606842041015625
1639426282393331700,7.013331787109375,0.2928619384765625,-0.60931396484375,-0.6028594970703125
1639426282403294700,7.023294677734375,0.2745513916015625,-0.5849761962890625,-0.5990447998046875
1639426282413257500,7.033257568359375,0.2535400390625,-0.5612335205078125,-0.598968505859375
1639426282423220700,7.043220703125,0.2317657470703125,-0.5501708984375,-0.5967864990234375
1639426282433183700,7.053183837890625,0.20330810546875,-0.5542755126953125,-0.59625244140625
1639426282443146800,7.063146728515625,0.17388916015625,-0.5724639892578125,-0.61773681640625
1639426282453108700,7.073108642578125,0.1598968505859375,-0.601654052734375,-0.669769287109375
1639426282463071500,7.083071533203125,0.1646575927734375,-0.6397705078125,-0.7129974365234375
1639426282473034500,7.093034423828125,0.1993865966796875,-0.6781158447265625,-0.7234649658203125
1639426282482997800,7.102997802734375,0.25244140625,-0.7048187255859375,-0.6995086669921875
1639426282492960800,7.112960693359375,0.304931640625,-0.717041015625,-0.6515655517578125
1639426282502922800,7.1229228515625,0.3478240966796875,-0.710479736328125,-0.5936431884765625
1639426282512885500,7.132885498046875,0.37884521484375,-0.679534912109375,-0.54339599609375
1639426282522848500,7.1428486328125,0.4014892578125,-0.650482177734375,-0.51373291015625
1639426282532811500,7.1528115234375,0.4105224609375,-0.64666748046875,-0.4992828369140625
1639426282542775600,7.162775634765625,0.4056549072265625,-0.654541015625,-0.4875335693359375
1639426282552737800,7.17273779296875,0.3978424072265625,-0.6627197265625,-0.48858642578125
1639426282562700800,7.18270068359375,0.39971923828125,-0.671844482421875,-0.50311279296875
1639426282572663800,7.192663818359375,0.40716552734375,-0.6748046875,-0.51751708984375
1639426282582626600,7.20262646484375,0.42626953125,-0.6798095703125,-0.56219482421875
1639426282592589600,7.212589599609375,0.44134521484375,-0.6865386962890625,-0.6440582275390625
1639426282602552600,7.222552490234375,0.46307373046875,-0.6951446533203125,-0.76275634765625
1639426282612514800,7.232514892578125,0.5035247802734375,-0.702972412109375,-0.906585693359375
1639426282622477800,7.242477783203125,0.5544891357421875,-0.6906890869140625,-1.022979736328125
1639426282632440800,7.25244091796875,0.60540771484375,-0.650421142578125,-1.0897979736328125
1639426282642403600,7.262403564453125,0.642669677734375,-0.609832763671875,-1.1142578125
1639426282652366600,7.27236669921875,0.672088623046875,-0.5641021728515625,-1.102630615234375
1639426282662328800,7.282328857421875,0.6875,-0.5096435546875,-1.0703277587890625
1639426282672291800,7.292291748046875,0.681854248046875,-0.45074462890625,-1.008056640625
1639426282682254800,7.3022548828125,0.670013427734375,-0.394683837890625,-0.9264373779296875
1639426282692217600,7.312217529296875,0.6690521240234375,-0.336334228515625,-0.880157470703125
1639426282702180600,7.3221806640625,0.6627044677734375,-0.28125,-0.85650634765625
1639426282712142600,7.332142578125,0.6254119873046875,-0.2276153564453125,-0.8414764404296875
1639426282722105900,7.34210595703125,0.5500640869140625,-0.1834259033203125,-0.8348541259765625
1639426282732068900,7.35206884765625,0.4569854736328125,-0.159454345703125,-0.8295135498046875
1639426282742031600,7.362031494140625,0.3945465087890625,-0.1755218505859375,-0.8136444091796875
1639426282751994600,7.37199462890625,0.3576812744140625,-0.2437591552734375,-0.77783203125
1639426282761956600,7.38195654296875,0.3277740478515625,-0.341583251953125,-0.7283935546875
1639426282771919600,7.391919677734375,0.3039703369140625,-0.4249420166015625,-0.704437255859375
1639426282781883000,7.4018828125,0.3086090087890625,-0.4795379638671875,-0.73309326171875
1639426282791846000,7.411845947265625,0.3446197509765625,-0.5151519775390625,-0.801513671875
1639426282801808600,7.42180859375,0.3960113525390625,-0.520416259765625,-0.9042816162109375
1639426282811770600,7.4317705078125,0.428863525390625,-0.4833221435546875,-1.01141357421875
1639426282821733600,7.441733642578125,0.4268798828125,-0.412078857421875,-1.086639404296875
1639426282831696600,7.451696533203125,0.4165191650390625,-0.3241424560546875,-1.084381103515625
1639426282841660000,7.461659912109375,0.4267425537109375,-0.2218170166015625,-1.0065765380859375
1639426282851622700,7.47162255859375,0.43280029296875,-0.1313629150390625,-0.9027252197265625
1639426282861585700,7.481585693359375,0.406646728515625,-0.1014862060546875,-0.796295166015625
1639426282871547600,7.491547607421875,0.3621063232421875,-0.130279541015625,-0.6892852783203125
1639426282881510700,7.5015107421875,0.317291259765625,-0.1834716796875,-0.593658447265625
1639426282891473700,7.5114736328125,0.294189453125,-0.2535858154296875,-0.5107421875
1639426282901437000,7.52143701171875,0.2872314453125,-0.319671630859375,-0.457061767578125
1639426282911399700,7.531399658203125,0.2667999267578125,-0.3641204833984375,-0.446929931640625
1639426282921361700,7.541361572265625,0.2275543212890625,-0.375030517578125,-0.45733642578125
1639426282931324700,7.55132470703125,0.1951751708984375,-0.3624725341796875,-0.478271484375
1639426282941287700,7.56128759765625,0.1803436279296875,-0.3562774658203125,-0.5103302001953125
1639426282951250700,7.571250732421875,0.1807403564453125,-0.33612060546875,-0.5324249267578125
1639426282961213700,7.581213623046875,0.1814117431640625,-0.3102874755859375,-0.5426025390625
1639426282971175700,7.59117578125,0.18438720703125,-0.2918548583984375,-0.5418701171875
1639426282981138700,7.601138671875,0.1854095458984375,-0.28076171875,-0.519805908203125
1639426282991101700,7.611101806640625,0.1871795654296875,-0.2735595703125,-0.4791717529296875
1639426283001064700,7.621064697265625,0.187713623046875,-0.26422119140625,-0.436431884765625
1639426283011027500,7.63102734375,0.1956024169921875,-0.2669830322265625,-0.4059600830078125
1639426283020989700,7.64098974609375,0.20684814453125,-0.2675933837890625,-0.37994384765625
1639426283030952700,7.65095263671875,0.216949462890625,-0.2579803466796875,-0.353271484375
1639426283040915700,7.660915771484375,0.2330169677734375,-0.2523956298828125,-0.3495025634765625
1639426283050878700,7.670878662109375,0.2485198974609375,-0.246429443359375,-0.3736572265625
1639426283060841700,7.680841796875,0.2720794677734375,-0.2496337890625,-0.43463134765625
1639426283070804500,7.690804443359375,0.349945068359375,-0.30145263671875,-0.5364990234375
1639426283080766700,7.7007666015625,0.4491119384765625,-0.38958740234375,-0.6661529541015625
1639426283090729700,7.710729736328125,0.5806884765625,-0.510772705078125,-0.8145294189453125
1639426283100692700,7.720692626953125,0.788726806640625,-0.533599853515625,-0.933349609375
1639426283110655700,7.73065576171875,0.9177093505859375,-0.5644683837890625,-1.08856201171875
1639426283120618500,7.740618408203125,0.7079620361328125,-0.641448974609375,-1.317474365234375
1639426283130580700,7.750580810546875,0.3937225341796875,-0.6189727783203125,-1.585540771484375
1639426283140543700,7.760543701171875,0.1683807373046875,-0.4730224609375,-1.7449493408203125
1639426283150506800,7.7705068359375,0.142730712890625,-0.3137054443359375,-1.7543487548828125
1639426283160469800,7.7804697265625,0.215576171875,-0.23626708984375,-1.6360321044921875
1639426283170432800,7.790432861328125,0.3444061279296875,-0.2464599609375,-1.4367218017578125
1639426283180394800,7.800394775390625,0.3769073486328125,-0.469390869140625,-1.2633056640625
1639426283190357800,7.810357666015625,0.35791015625,-0.73895263671875,-1.125579833984375
1639426283200320800,7.82032080078125,0.3237762451171875,-0.880462646484375,-1.0205841064453125
1639426283210283800,7.83028369140625,0.2859954833984375,-0.88433837890625,-0.9387969970703125
1639426283220246800,7.840246826171875,0.237335205078125,-0.8216705322265625,-0.8807373046875
1639426283230209500,7.85020947265625,0.1277923583984375,-0.7810821533203125,-0.8692474365234375
1639426283240171800,7.860171875,0.0167388916015625,-0.7482452392578125,-0.861602783203125
1639426283250134800,7.870134765625,-0.090362548828125,-0.70574951171875,-0.849945068359375
1639426283260097800,7.880097900390625,-0.146820068359375,-0.6587982177734375,-0.86578369140625
1639426283270060800,7.890060791015625,-0.14544677734375,-0.61114501953125,-0.888519287109375
1639426283280023600,7.9000234375,-0.1038970947265625,-0.5740966796875,-0.8983001708984375
1639426283289985500,7.909985595703125,-0.0443115234375,-0.5452117919921875,-0.8774871826171875
1639426283299948800,7.91994873046875,0.018585205078125,-0.5179901123046875,-0.8311309814453125
1639426283309911800,7.929911865234375,0.059478759765625,-0.503082275390625,-0.7794189453125
1639426283319874800,7.939874755859375,0.08953857421875,-0.494598388671875,-0.728057861328125
1639426283329837800,7.949837890625,0.112701416015625,-0.4860687255859375,-0.6876678466796875
1639426283339799600,7.959799560546875,0.135955810546875,-0.4859161376953125,-0.6617584228515625
1639426283349762600,7.969762451171875,0.1610260009765625,-0.488128662109375,-0.6514129638671875
1639426283359724800,7.979724853515625,0.1602783203125,-0.4602203369140625,-0.669830322265625
1639426283369687800,7.989687744140625,0.1196746826171875,-0.410980224609375,-0.7195892333984375
1639426283379650800,7.99965087890625,0.0631866455078125,-0.361572265625,-0.794036865234375
1639426283389612800,8.00961279296875,-0.0071563720703125,-0.298675537109375,-0.8775177001953125
1639426283399575800,8.019575927734374,-0.0425262451171875,-0.2542724609375,-0.9422454833984375
1639426283409538800,8.029538818359375,0.00518798828125,-0.2303924560546875,-0.9467315673828125
1639426283419501800,8.039501708984375,0.143646240234375,-0.1799163818359375,-0.973052978515625
1639426283429464800,8.04946484375,0.344329833984375,-0.134124755859375,-1.11981201171875
1639426283439426800,8.0594267578125,0.5475921630859375,-0.162841796875,-1.2483367919921875
1639426283449389800,8.069389892578124,0.5707855224609375,-0.24310302734375,-1.2444610595703125
1639426283459352800,8.079352783203126,0.4048614501953125,-0.34454345703125,-1.12725830078125
1639426283469315800,8.08931591796875,0.2850341796875,-0.4104766845703125,-1.092681884765625
1639426283479278800,8.09927880859375,0.2811737060546875,-0.4349517822265625,-1.146453857421875
1639426283489241900,8.109241943359375,0.2896575927734375,-0.4370880126953125,-1.1395111083984375
1639426283499203800,8.119203857421875,0.2803802490234375,-0.4053955078125,-1.0368194580078125
1639426283509166600,8.12916650390625,0.296722412109375,-0.3769073486328125,-0.9424591064453125
1639426283519129900,8.1391298828125,0.3296966552734375,-0.358612060546875,-0.902191162109375
1639426283529092900,8.1490927734375,0.356597900390625,-0.33697509765625,-0.890716552734375
1639426283539055900,8.159055908203126,0.3581695556640625,-0.3224945068359375,-0.8825531005859375
1639426283549017900,8.169017822265625,0.340362548828125,-0.3127593994140625,-0.8427276611328125
1639426283558980600,8.178980712890626,0.32275390625,-0.3017120361328125,-0.764801025390625
1639426283568943600,8.188943603515625,0.321380615234375,-0.3013763427734375,-0.687774658203125
1639426283578907000,8.198906982421875,0.3272857666015625,-0.321044921875,-0.620849609375
1639426283588870000,8.208869873046876,0.33563232421875,-0.3613739013671875,-0.5637969970703125
1639426283598831900,8.218831787109375,0.3298492431640625,-0.4153289794921875,-0.5293731689453125
1639426283608795000,8.228794921875,0.32098388671875,-0.4679718017578125,-0.51507568359375
1639426283618757600,8.238757568359375,0.313385009765625,-0.5140228271484375,-0.512451171875
1639426283628720600,8.248720703125,0.308074951171875,-0.554168701171875,-0.5096588134765625
1639426283638684000,8.258683837890626,0.3108978271484375,-0.58941650390625,-0.52337646484375
1639426283648647000,8.26864697265625,0.315155029296875,-0.6107940673828125,-0.552825927734375
1639426283658609000,8.27860888671875,0.324249267578125,-0.6104278564453125,-0.58770751953125
1639426283668571600,8.288571533203125,0.32611083984375,-0.6105499267578125,-0.6232757568359375
1639426283678534700,8.29853466796875,0.3388214111328125,-0.6080322265625,-0.6564788818359375
1639426283688497700,8.30849755859375,0.3811798095703125,-0.6197967529296875,-0.6683502197265625
1639426283698461000,8.3184609375,0.4298858642578125,-0.6532440185546875,-0.6637725830078125
1639426283708423000,8.3284228515625,0.4560089111328125,-0.6863861083984375,-0.6596221923828125
1639426283718385700,8.3383857421875,0.448974609375,-0.6956024169921875,-0.66326904296875
1639426283728348700,8.3483486328125,0.378509521484375,-0.6769256591796875,-0.6966094970703125
1639426283738311700,8.358311767578124,0.2982025146484375,-0.6231536865234375,-0.73785400390625
1639426283748274700,8.368274658203125,0.2349700927734375,-0.5535888671875,-0.7735137939453125
1639426283758237000,8.37823681640625,0.1879425048828125,-0.4748687744140625,-0.799285888671875
1639426283768200000,8.388199951171876,0.22760009765625,-0.4038543701171875,-0.799468994140625
1639426283778162700,8.39816259765625,0.279083251953125,-0.3376312255859375,-0.779632568359375
1639426283788125700,8.408125732421874,0.303070068359375,-0.300201416015625,-0.7816162109375
1639426283798088700,8.418088623046875,0.3191070556640625,-0.27777099609375,-0.813079833984375
1639426283808051700,8.4280517578125,0.31268310546875,-0.270294189453125,-0.85614013671875
1639426283818014000,8.438013916015626,0.28857421875,-0.2733612060546875,-0.9169769287109375
1639426283827976700,8.447976806640625,0.2794342041015625,-0.2645721435546875,-0.9565277099609375
1639426283837939700,8.457939697265624,0.29327392578125,-0.232330322265625,-0.95147705078125
1639426283847902700,8.46790283203125,0.3296051025390625,-0.1794891357421875,-0.9450225830078125
1639426283857865700,8.47786572265625,0.3743438720703125,-0.1363525390625,-0.9640655517578125
1639426283867828000,8.487827880859374,0.3857421875,-0.0915679931640625,-0.9471282958984375
1639426283877791000,8.497791015625,0.39422607421875,-0.0612335205078125,-0.910186767578125
1639426283887753700,8.507753662109375,0.4267730712890625,-0.0505218505859375,-0.8686370849609375
1639426283897716700,8.517716796875,0.450286865234375,-0.023406982421875,-0.8346710205078125
1639426283907679700,8.5276796875,0.4727630615234375,-0.0352783203125,-0.851806640625
1639426283917642000,8.53764208984375,0.371978759765625,-0.0406494140625,-0.93402099609375
1639426283927605000,8.54760498046875,0.1504974365234375,0.0275726318359375,-1.0469970703125
1639426283937567700,8.557567626953125,0.01123046875,0.1742095947265625,-1.1003265380859375
1639426283947530800,8.56753076171875,0.045806884765625,0.32647705078125,-1.0797271728515625
1639426283957493800,8.57749365234375,0.187103271484375,0.32830810546875,-1.191009521484375
1639426283967456800,8.587456787109375,0.24591064453125,0.1894683837890625,-1.4322967529296875
1639426283977419000,8.5974189453125,0.2310333251953125,0.0439300537109375,-1.5709228515625
1639426283987381800,8.6073818359375,0.192596435546875,-0.0639801025390625,-1.5616302490234375
1639426283997344800,8.6173447265625,0.1829376220703125,-0.0984344482421875,-1.3690338134765625
1639426284007307800,8.627307861328125,0.1546478271484375,-0.1196441650390625,-1.1284027099609375
1639426284017270800,8.637270751953125,0.1033172607421875,-0.251068115234375,-0.9257354736328125
1639426284027232800,8.647232666015626,0.1075439453125,-0.2084197998046875,-0.6930694580078125
1639426284037196000,8.657196044921875,0.235260009765625,0.110992431640625,-0.640533447265625
1639426284047158800,8.66715869140625,0.4592132568359375,0.0569305419921875,-0.889862060546875
1639426284057121800,8.677121826171875,0.64532470703125,-0.0290679931640625,-0.9426422119140625
1639426284067084800,8.687084716796875,0.5524749755859375,0.119476318359375,-0.886627197265625
1639426284077046800,8.697046875,0.4302825927734375,0.15826416015625,-0.9365386962890625
1639426284087009800,8.707009765625,0.4336700439453125,0.068817138671875,-0.982330322265625
1639426284096972800,8.716972900390624,0.5402984619140625,0.057403564453125,-0.9154815673828125
1639426284106935800,8.726935791015626,0.5118255615234375,0.056884765625,-0.882476806640625
1639426284116898800,8.73689892578125,0.3618927001953125,-0.024383544921875,-0.8796539306640625
1639426284126861800,8.74686181640625,0.2717437744140625,-0.0689697265625,-0.833740234375
1639426284136823800,8.75682373046875,0.2306060791015625,-0.08734130859375,-0.793548583984375
1639426284146786800,8.766786865234375,0.22845458984375,-0.1093597412109375,-0.786651611328125
1639426284156749800,8.776749755859376,0.25244140625,-0.13861083984375,-0.8490142822265625
1639426284166712800,8.786712890625,0.2708587646484375,-0.1402740478515625,-0.94036865234375
1639426284176675800,8.79667578125,0.2701873779296875,-0.0869903564453125,-0.99212646484375
1639426284186637800,8.806637939453125,0.2662200927734375,-0.031829833984375,-1.023406982421875
1639426284196600800,8.816600830078125,0.254669189453125,-0.0118865966796875,-1.0322723388671875
1639426284206563600,8.8265634765625,0.2271728515625,-0.0484619140625,-1.03802490234375
1639426284216526800,8.83652685546875,0.210052490234375,-0.085845947265625,-1.0230712890625
1639426284226489900,8.84648974609375,0.2106475830078125,-0.118316650390625,-0.9882659912109375
1639426284236451800,8.856451904296875,0.2227325439453125,-0.144622802734375,-0.9206085205078125
1639426284246414800,8.866414794921875,0.2160797119140625,-0.1507720947265625,-0.827880859375
1639426284256377600,8.876377685546874,0.217041015625,-0.12109375,-0.77838134765625
1639426284266340600,8.886340576171875,0.2322998046875,-0.0885467529296875,-0.845306396484375
1639426284276304000,8.896303955078125,0.2528533935546875,-0.0851593017578125,-0.933135986328125
1639426284286267000,8.906266845703126,0.2613372802734375,-0.0786895751953125,-0.9845733642578125
1639426284296228900,8.916228759765625,0.28143310546875,-0.0468292236328125,-1.025848388671875
1639426284306192000,8.92619189453125,0.3055877685546875,-0.006744384765625,-1.04595947265625
1639426284316154600,8.936154541015625,0.30145263671875,0.009735107421875,-1.048126220703125
1639426284326117600,8.94611767578125,0.2775726318359375,0.0153961181640625,-1.034332275390625
1639426284336081000,8.956080810546876,0.252227783203125,0.00067138671875,-1.0017242431640625
1639426284346043000,8.96604296875,0.2481689453125,-0.0289764404296875,-0.9680328369140625
1639426284356006000,8.976005859375,0.25848388671875,-0.051544189453125,-0.9531402587890625
1639426284365969400,8.985969482421876,0.2788543701171875,-0.0692291259765625,-0.94256591796875
1639426284375932400,8.995932373046875,0.300018310546875,-0.0760650634765625,-0.91925048828125
1639426284385895400,9.0058955078125,0.2991790771484375,-0.072265625,-0.9105682373046875
1639426284395857400,9.015857421875,0.2833709716796875,-0.0538330078125,-0.9202423095703125
1639426284405820400,9.0258203125,0.272064208984375,-0.0372772216796875,-0.9378204345703125
1639426284415783400,9.035783447265626,0.2631072998046875,-0.0235137939453125,-0.9614105224609375
1639426284425746400,9.045746337890625,0.2570037841796875,-0.0179595947265625,-0.980194091796875
1639426284435709400,9.05570947265625,0.2513885498046875,-0.019744873046875,-0.985504150390625
1639426284445672400,9.06567236328125,0.24017333984375,-0.02471923828125,-0.9804534912109375
1639426284455634400,9.075634521484375,0.2357025146484375,-0.028900146484375,-0.969451904296875
1639426284465597400,9.085597412109376,0.235931396484375,-0.0299224853515625,-0.95947265625
1639426284475560400,9.095560546875,0.243408203125,-0.03277587890625,-0.959625244140625
1639426284485523500,9.1055234375,0.2529754638671875,-0.0333099365234375,-0.9669189453125
1639426284495486500,9.115486572265626,0.2613067626953125,-0.0338287353515625,-0.9762115478515625
1639426284505448400,9.125448486328125,0.2649383544921875,-0.035369873046875,-0.983978271484375
1639426284515411500,9.135411376953124,0.265167236328125,-0.0413360595703125,-0.984100341796875
1639426284525374500,9.14537451171875,0.265594482421875,-0.046905517578125,-0.9777679443359375
1639426284535337500,9.15533740234375,0.26531982421875,-0.053497314453125,-0.9718780517578125
1639426284545300500,9.165300537109376,0.2654266357421875,-0.056182861328125,-0.965423583984375
1639426284555262200,9.17526220703125,0.2684326171875,-0.0585784912109375,-0.9588470458984375
1639426284565225500,9.1852255859375,0.27374267578125,-0.0604705810546875,-0.954193115234375
1639426284575188500,9.1951884765625,0.2825164794921875,-0.0626068115234375,-0.9491424560546875
1639426284585151500,9.2051513671875,0.291839599609375,-0.06085205078125,-0.94281005859375
1639426284595114500,9.215114501953124,0.2987213134765625,-0.0578765869140625,-0.936248779296875
1639426284605077500,9.225077392578125,0.3018035888671875,-0.0545501708984375,-0.9274444580078125
1639426284615039200,9.235039306640624,0.2981719970703125,-0.050689697265625,-0.921875
1639426284625002500,9.24500244140625,0.2901611328125,-0.0496673583984375,-0.9185943603515625
1639426284634965500,9.254965576171875,0.281524658203125,-0.0476226806640625,-0.9182891845703125
1639426284644928500,9.264928466796874,0.2763519287109375,-0.044830322265625,-0.922760009765625
1639426284654891500,9.2748916015625,0.2739715576171875,-0.0416107177734375,-0.931304931640625
1639426284664853200,9.284853271484375,0.2727203369140625,-0.040069580078125,-0.9434967041015625
1639426284674816300,9.294816162109376,0.273712158203125,-0.037750244140625,-0.9542694091796875
1639426284684779500,9.304779541015625,0.275177001953125,-0.0370025634765625,-0.961181640625
1639426284694742500,9.314742431640624,0.2781982421875,-0.0393524169921875,-0.9630279541015625
1639426284704705500,9.32470556640625,0.2819671630859375,-0.0413055419921875,-0.9638824462890625
1639426284714668500,9.33466845703125,0.286590576171875,-0.0406494140625,-0.9629058837890625
1639426284724630300,9.34463037109375,0.2862701416015625,-0.0405120849609375,-0.9614715576171875
1639426284734593300,9.35459326171875,0.2819671630859375,-0.0382537841796875,-0.959320068359375
1639426284744556500,9.364556640625,0.274505615234375,-0.0328521728515625,-0.957061767578125
1639426284754519600,9.37451953125,0.2665252685546875,-0.0304718017578125,-0.9589996337890625
1639426284764482600,9.384482666015625,0.2513885498046875,-0.032623291015625,-0.952239990234375
1639426284774444300,9.3944443359375,0.23382568359375,-0.0341796875,-0.9358367919921875
1639426284784407300,9.4044072265625,0.224517822265625,-0.0250396728515625,-0.9198760986328125
1639426284794370300,9.414370361328125,0.2190093994140625,-0.0191497802734375,-0.9170684814453125
1639426284804333600,9.42433349609375,0.21783447265625,-0.02166748046875,-0.92626953125
1639426284814296600,9.434296630859375,0.2202606201171875,-0.0237579345703125,-0.9372100830078125
1639426284824258300,9.44425830078125,0.232330322265625,-0.02984619140625,-0.9504852294921875
1639426284834221300,9.45422119140625,0.2410736083984375,-0.0427398681640625,-0.9722442626953125
1639426284844184300,9.464184326171875,0.239990234375,-0.0566558837890625,-0.9975128173828125
1639426284854147300,9.474147216796876,0.2451324462890625,-0.06475830078125,-0.9973297119140625
1639426284864110600,9.484110595703125,0.2520904541015625,-0.07183837890625,-0.9705657958984375
1639426284874073600,9.494073486328125,0.2643585205078125,-0.0782470703125,-0.9469451904296875
1639426284884035300,9.504035400390626,0.2913818359375,-0.083038330078125,-0.941497802734375
1639426284893998300,9.513998291015625,0.3378143310546875,-0.077117919921875,-0.963897705078125
1639426284903961300,9.52396142578125,0.3950958251953125,-0.0585174560546875,-0.9920654296875
1639426284913924400,9.53392431640625,0.434356689453125,-0.054534912109375,-1.0174560546875
1639426284923887600,9.5438876953125,0.444915771484375,-0.0572967529296875,-1.0146331787109375
1639426284933849300,9.553849365234376,0.473297119140625,-0.063232421875,-0.98052978515625
1639426284943812400,9.563812255859375,0.5147857666015625,-0.06353759765625,-0.9462432861328125
1639426284953775400,9.573775390625,0.477203369140625,-0.072235107421875,-0.928924560546875
1639426284963738400,9.58373828125,0.38812255859375,-0.0788116455078125,-0.9336395263671875
1639426284973701400,9.593701416015625,0.30914306640625,-0.0695037841796875,-0.960296630859375
1639426284983664600,9.60366455078125,0.25750732421875,-0.0546112060546875,-0.989532470703125
1639426284993626400,9.61362646484375,0.2206573486328125,-0.0447998046875,-1.0214996337890625
1639426285003589400,9.62358935546875,0.2166595458984375,-0.04119873046875,-1.048004150390625
1639426285013552400,9.633552490234376,0.2782745361328125,-0.0412750244140625,-1.082794189453125
1639426285023515400,9.643515380859375,0.35797119140625,-0.034637451171875,-1.099761962890625
1639426285033478400,9.653478515625,0.4017486572265625,-0.032684326171875,-1.094207763671875
1639426285043440400,9.6634404296875,0.370391845703125,-0.054718017578125,-1.0830230712890625
1639426285053403400,9.6734033203125,0.28277587890625,-0.0861663818359375,-1.0564117431640625
1639426285063366400,9.683366455078126,0.198089599609375,-0.129058837890625,-1.013092041015625
1639426285073329400,9.693329345703125,0.155120849609375,-0.1603851318359375,-0.97406005859375
1639426285083292400,9.70329248046875,0.13385009765625,-0.188629150390625,-0.937957763671875
1639426285093254400,9.71325439453125,0.12548828125,-0.211181640625,-0.9178314208984375
1639426285103217400,9.723217529296875,0.1165008544921875,-0.2249908447265625,-0.904022216796875
1639426285113180400,9.733180419921876,0.1147918701171875,-0.2445068359375,-0.89166259765625
1639426285123143400,9.743143310546875,0.121917724609375,-0.2819061279296875,-0.8827972412109375
1639426285133106400,9.7531064453125,0.125762939453125,-0.3221588134765625,-0.8763885498046875
1639426285143069400,9.7630693359375,0.1208648681640625,-0.3420867919921875,-0.8681793212890625
1639426285153031400,9.773031494140625,0.104949951171875,-0.3441619873046875,-0.8433837890625
1639426285162994400,9.782994384765624,0.1029815673828125,-0.3287811279296875,-0.8072967529296875
1639426285172957400,9.79295751953125,0.1231689453125,-0.325103759765625,-0.781036376953125
1639426285182920400,9.80292041015625,0.1494293212890625,-0.3381500244140625,-0.7780303955078125
1639426285192883500,9.812883544921876,0.2060394287109375,-0.361846923828125,-0.812713623046875
1639426285202846200,9.82284619140625,0.27874755859375,-0.3330230712890625,-0.871612548828125
1639426285212808400,9.832808349609374,0.305145263671875,-0.31103515625,-1.006622314453125
1639426285222771500,9.842771484375,0.2906646728515625,-0.3232879638671875,-1.1941986083984375
1639426285232734500,9.852734375,0.2575531005859375,-0.324188232421875,-1.3205108642578125
1639426285242697500,9.862697509765624,0.239837646484375,-0.3219757080078125,-1.3207244873046875
1639426285252660500,9.872660400390625,0.2463531494140625,-0.3535919189453125,-1.266265869140625
1639426285262622500,9.88262255859375,0.2373504638671875,-0.3992919921875,-1.196197509765625
1639426285272585500,9.89258544921875,0.19036865234375,-0.4278106689453125,-1.0968475341796875
1639426285282548500,9.902548583984375,0.1213531494140625,-0.429290771484375,-0.9849700927734375
1639426285292511500,9.912511474609374,0.0780029296875,-0.4305267333984375,-0.9198760986328125
1639426285302474500,9.922474609375,0.0687255859375,-0.431427001953125,-0.88916015625
1639426285312436200,9.932436279296875,0.0939483642578125,-0.4327545166015625,-0.8620452880859375
1639426285322399500,9.9423994140625,0.151947021484375,-0.41864013671875,-0.8533782958984375
1639426285332362500,9.952362548828125,0.2064971923828125,-0.3813018798828125,-0.9015045166015625
1639426285342325500,9.962325439453124,0.2485809326171875,-0.318756103515625,-1.02777099609375
1639426285352288500,9.97228857421875,0.2660675048828125,-0.221099853515625,-1.1845855712890625
1639426285362251300,9.982251220703125,0.2538604736328125,-0.1407928466796875,-1.2825164794921875
1639426285372213200,9.992213134765626,0.240234375,-0.109405517578125,-1.310882568359375
1639426285382176500,10.002176513671875,0.240325927734375,-0.121124267578125,-1.300323486328125
1639426285392139500,10.012139404296875,0.2501373291015625,-0.1517181396484375,-1.2534027099609375
1639426285402102500,10.0221025390625,0.253692626953125,-0.1842193603515625,-1.1876678466796875
1639426285412065500,10.0320654296875,0.2509765625,-0.207122802734375,-1.1292877197265625
1639426285422027300,10.04202734375,0.2384796142578125,-0.2239227294921875,-1.08172607421875
1639426285431990300,10.051990234375,0.2287445068359375,-0.2341156005859375,-1.0472259521484375
1639426285441953500,10.06195361328125,0.2252655029296875,-0.247833251953125,-1.03155517578125
1639426285451916500,10.07191650390625,0.22882080078125,-0.25787353515625,-1.0394744873046875
1639426285461879600,10.081879638671875,0.224822998046875,-0.2663726806640625,-1.0774383544921875
1639426285471842300,10.09184228515625,0.2314300537109375,-0.2446136474609375,-1.113433837890625
1639426285481804300,10.10180419921875,0.2699127197265625,-0.241851806640625,-1.1729583740234375
1639426285491767300,10.111767333984375,0.326385498046875,-0.253570556640625,-1.2213134765625
1639426285501730600,10.12173046875,0.3803558349609375,-0.232269287109375,-1.2300262451171875
1639426285511693600,10.131693603515625,0.418701171875,-0.1864776611328125,-1.19873046875
1639426285521656600,10.141656494140625,0.4290313720703125,-0.1399993896484375,-1.136260986328125
1639426285531618300,10.151618408203126,0.4074859619140625,-0.100830078125,-1.0640869140625
1639426285541581300,10.161581298828125,0.3508758544921875,-0.09197998046875,-0.97113037109375
1639426285551544300,10.17154443359375,0.285736083984375,-0.1051025390625,-0.882293701171875
1639426285561507600,10.181507568359375,0.2366790771484375,-0.1412811279296875,-0.8053741455078125
1639426285571470600,10.191470703125,0.22210693359375,-0.185302734375,-0.727142333984375
1639426285581433300,10.201433349609376,0.2407989501953125,-0.2363739013671875,-0.6526641845703125
1639426285591395300,10.211395263671875,0.2840576171875,-0.2783355712890625,-0.5900726318359375
1639426285601358300,10.2213583984375,0.33831787109375,-0.3029022216796875,-0.5392913818359375
1639426285611321300,10.2313212890625,0.39495849609375,-0.306640625,-0.5169677734375
1639426285621284600,10.24128466796875,0.4398193359375,-0.29266357421875,-0.5252685546875
1639426285631247400,10.251247314453124,0.46539306640625,-0.2647247314453125,-0.5578155517578125
1639426285641209300,10.261209228515625,0.48663330078125,-0.230560302734375,-0.6107940673828125
1639426285651172400,10.27117236328125,0.5129241943359375,-0.1926116943359375,-0.6735076904296875
1639426285661135400,10.28113525390625,0.5413818359375,-0.1607513427734375,-0.711639404296875
1639426285671098400,10.291098388671875,0.5626678466796875,-0.137451171875,-0.7081451416015625
1639426285681061600,10.3010615234375,0.57244873046875,-0.1170654296875,-0.6809844970703125
1639426285691024400,10.3110244140625,0.569244384765625,-0.093658447265625,-0.6537017822265625
1639426285700986400,10.320986328125,0.571197509765625,-0.0741424560546875,-0.635528564453125
1639426285710949400,10.330949462890626,0.5770416259765625,-0.0687103271484375,-0.620574951171875
1639426285720912400,10.340912353515625,0.59063720703125,-0.0712738037109375,-0.5978240966796875
1639426285730875400,10.35087548828125,0.62652587890625,-0.0789794921875,-0.548675537109375
1639426285740838400,10.36083837890625,0.650726318359375,-0.0891265869140625,-0.4571380615234375
1639426285750800400,10.37080029296875,0.67791748046875,-0.0942230224609375,-0.33984375
1639426285760763400,10.380763427734376,0.72564697265625,-0.0963287353515625,-0.2253265380859375
1639426285770726400,10.390726318359375,0.77496337890625,-0.0861663818359375,-0.1186370849609375
1639426285780689400,10.400689453125,0.8416900634765625,-0.0612640380859375,-0.030120849609375
1639426285790652400,10.41065234375,0.91729736328125,-0.014984130859375,0.021148681640625
1639426285800615400,10.420615478515625,0.9951629638671875,0.0483856201171875,0.037078857421875
1639426285810577400,10.430577392578124,1.04705810546875,0.1402587890625,-0.00299072265625
1639426285820540400,10.44054052734375,1.0636444091796875,0.24755859375,-0.119140625
1639426285830503400,10.45050341796875,1.069244384765625,0.3260498046875,-0.2174530029296875
1639426285840466400,10.460466552734376,1.0557403564453125,0.3418426513671875,-0.2062225341796875
1639426285850429200,10.47042919921875,1.030059814453125,0.298431396484375,-0.0916748046875
1639426285860391400,10.480391357421874,1.0070037841796875,0.24078369140625,0.0617523193359375
1639426285870354400,10.4903544921875,0.980865478515625,0.1902923583984375,0.2012939453125
1639426285880317400,10.5003173828125,0.964630126953125,0.152862548828125,0.306488037109375
1639426285890280400,10.510280517578124,0.9539642333984375,0.1431732177734375,0.3631439208984375
1639426285900243200,10.5202431640625,0.93548583984375,0.1488189697265625,0.3967132568359375
1639426285910206200,10.530206298828125,0.9364471435546875,0.1648406982421875,0.42413330078125
1639426285920168400,10.54016845703125,0.9500579833984375,0.18402099609375,0.430999755859375
1639426285930131500,10.55013134765625,0.9766082763671875,0.19451904296875,0.3875579833984375
1639426285940094500,10.560094482421874,1.0366058349609375,0.1900787353515625,0.2881622314453125
1639426285950057500,10.570057373046875,1.0977630615234375,0.163970947265625,0.13177490234375
1639426285960020200,10.580020263671875,1.0707244873046875,0.120391845703125,-0.06072998046875
1639426285969982500,10.589982421875,0.9603118896484375,0.0720062255859375,-0.215423583984375
1639426285979945500,10.599945556640625,0.899688720703125,0.0343475341796875,-0.274627685546875
1639426285989908500,10.609908447265624,0.9051055908203125,0.010406494140625,-0.2705535888671875
1639426285999871500,10.61987158203125,0.9481048583984375,0.0003204345703125,-0.2420654296875
1639426286009834200,10.629834228515625,0.9798431396484375,-0.0198211669921875,-0.2426300048828125
1639426286019797200,10.63979736328125,0.9639434814453125,-0.052734375,-0.2794036865234375
1639426286029759500,10.649759521484375,0.91217041015625,-0.080718994140625,-0.3331298828125
1639426286039722500,10.659722412109375,0.877960205078125,-0.1024017333984375,-0.36749267578125
1639426286049685500,10.669685546875,0.8980255126953125,-0.1204376220703125,-0.3666839599609375
1639426286059648500,10.6796484375,0.938079833984375,-0.1362762451171875,-0.33721923828125
1639426286069611300,10.689611328125,0.9482269287109375,-0.1475067138671875,-0.26708984375
1639426286079573500,10.699573486328125,0.9294281005859375,-0.1454315185546875,-0.185302734375
1639426286089535500,10.709535400390624,0.904327392578125,-0.1243133544921875,-0.1067962646484375
1639426286099498500,10.71949853515625,0.8885345458984375,-0.101318359375,-0.0278778076171875
1639426286109461200,10.729461181640625,0.8797607421875,-0.0926971435546875,0.04132080078125
1639426286119424300,10.73942431640625,0.8731231689453125,-0.0880279541015625,0.0818634033203125
1639426286129386500,10.749386474609375,0.8701629638671875,-0.0823516845703125,0.10772705078125
1639426286139349500,10.759349609375,0.8675079345703125,-0.0818939208984375,0.1214752197265625
1639426286149312500,10.7693125,0.8714599609375,-0.085174560546875,0.126556396484375
1639426286159275300,10.779275146484375,0.87677001953125,-0.1015777587890625,0.12567138671875
1639426286169238300,10.78923828125,0.883636474609375,-0.1191253662109375,0.1139373779296875
1639426286179201300,10.799201171875,0.909912109375,-0.12890625,0.095977783203125
1639426286189163500,10.80916357421875,0.9398651123046875,-0.1333770751953125,0.07757568359375
1639426286199126500,10.81912646484375,0.9438323974609375,-0.1381072998046875,0.0750885009765625
1639426286209089300,10.82908935546875,0.94464111328125,-0.120269775390625,0.091033935546875
1639426286219052300,10.83905224609375,0.9461822509765625,-0.08624267578125,0.12042236328125
1639426286229015300,10.849015380859376,0.9486541748046875,-0.05517578125,0.16455078125
1639426286238978300,10.858978271484375,0.9332427978515625,-0.033050537109375,0.211700439453125
1639426286248940500,10.8689404296875,0.89990234375,-0.021820068359375,0.2460784912109375
1639426286258903600,10.878903564453125,0.8808441162109375,-0.022430419921875,0.264984130859375
1639426286268866300,10.8888662109375,0.872314453125,-0.034210205078125,0.2715606689453125
1639426286278829300,10.898829345703126,0.8654022216796875,-0.049652099609375,0.2693939208984375
1639426286288792300,10.908792236328125,0.860076904296875,-0.0617828369140625,0.251739501953125
1639426286298754600,10.918754638671874,0.856842041015625,-0.063385009765625,0.2241058349609375
1639426286308717600,10.928717529296875,0.8426513671875,-0.0443572998046875,0.20428466796875
1639426286318680300,10.938680419921875,0.8195037841796875,-0.015472412109375,0.2008514404296875
1639426286328643300,10.948643310546874,0.783233642578125,0.011260986328125,0.208709716796875
1639426286338606300,10.9586064453125,0.7619171142578125,0.03717041015625,0.22821044921875
1639426286348569300,10.9685693359375,0.767181396484375,0.0570526123046875,0.248016357421875
1639426286358531600,10.978531494140626,0.770660400390625,0.0720977783203125,0.263885498046875
1639426286368494300,10.988494384765625,0.7685394287109375,0.0845794677734375,0.2714080810546875
1639426286378457300,10.998457275390624,0.7730712890625,0.0960235595703125,0.27618408203125
1639426286388420400,11.00842041015625,0.7926177978515625,0.1065673828125,0.272308349609375
1639426286398383400,11.01838330078125,0.8293914794921875,0.124420166015625,0.265533447265625
1639426286408346000,11.02834619140625,0.8491973876953125,0.1487579345703125,0.242889404296875
1639426286418308400,11.038308349609375,0.8259429931640625,0.1718292236328125,0.20745849609375
1639426286428271400,11.048271240234374,0.7685089111328125,0.1871185302734375,0.189483642578125
1639426286438234400,11.058234375,0.720001220703125,0.203704833984375,0.2007293701171875
1639426286448197400,11.068197265625,0.7229156494140625,0.2144775390625,0.255584716796875
1639426286458160000,11.07816015625,0.7550048828125,0.2198638916015625,0.346343994140625
1639426286468122400,11.088122314453125,0.7391204833984375,0.2146759033203125,0.443023681640625
1639426286478085400,11.09808544921875,0.68310546875,0.2041778564453125,0.5190887451171875
1639426286488048400,11.10804833984375,0.617401123046875,0.1871490478515625,0.5597076416015625
1639426286498011400,11.118011474609375,0.55108642578125,0.1603851318359375,0.5853271484375
1639426286507974400,11.127974365234374,0.493072509765625,0.1485748291015625,0.6312408447265625
1639426286517937200,11.137937255859375,0.4669036865234375,0.136383056640625,0.643585205078125
1639426286527899400,11.1478994140625,0.45953369140625,0.1340789794921875,0.6318359375
1639426286537862400,11.1578623046875,0.460418701171875,0.14715576171875,0.63427734375
1639426286547825400,11.167825439453125,0.45166015625,0.17547607421875,0.6261444091796875
1639426286557788400,11.177788330078124,0.425262451171875,0.207916259765625,0.627349853515625
1639426286567751200,11.187751220703126,0.3623809814453125,0.231048583984375,0.649932861328125
1639426286577714200,11.197714111328125,0.25274658203125,0.251495361328125,0.6968841552734375
1639426286587677200,11.20767724609375,0.1629180908203125,0.250244140625,0.7377166748046875
1639426286597639400,11.217639404296875,0.0990142822265625,0.2431793212890625,0.764190673828125
1639426286607602400,11.2276025390625,-0.0638580322265625,0.2017822265625,0.8741455078125
1639426286617565200,11.237565185546876,-0.1720733642578125,0.178131103515625,1.0618133544921875
1639426286627528200,11.247528076171875,-0.2975921630859375,0.1604461669921875,1.2996978759765625
1639426286637491200,11.2574912109375,-0.4766387939453125,0.101165771484375,1.53167724609375
1639426286647454200,11.2674541015625,-0.69183349609375,-0.00665283203125,1.7819671630859375
1639426286657416400,11.27741650390625,-0.8800201416015625,-0.15203857421875,2.119781494140625
1639426286667379500,11.28737939453125,-1.0312652587890625,-0.28741455078125,2.5746612548828125
1639426286677342200,11.29734228515625,-0.980712890625,-0.2948455810546875,2.9666900634765625
1639426286687305200,11.30730517578125,-0.5453948974609375,-0.028350830078125,2.7867279052734375
1639426286697268200,11.317268310546876,-0.1306304931640625,0.265106201171875,2.0051727294921875
1639426286707231200,11.327231201171875,0.13922119140625,0.2765960693359375,1.4102325439453125
1639426286717193500,11.337193359375,0.2597503662109375,0.1936492919921875,1.119049072265625
1639426286727156200,11.34715625,0.0612030029296875,0.14361572265625,0.942626953125
1639426286737119200,11.357119140625,-0.087615966796875,0.1159515380859375,0.808380126953125
1639426286747082200,11.367082275390626,-0.146484375,0.0965576171875,0.7094573974609375
1639426286757045200,11.377045166015625,-0.154815673828125,0.0880584716796875,0.6689300537109375
1639426286767007200,11.38700732421875,-0.13934326171875,0.0889739990234375,0.6936492919921875
1639426286776970500,11.396970458984375,-0.113006591796875,0.10479736328125,0.766632080078125
1639426286786933200,11.406933349609375,-0.0831298828125,0.1296844482421875,0.864501953125
1639426286796896300,11.416896240234376,-0.027252197265625,0.146942138671875,0.9635467529296875
1639426286806859300,11.426859375,0.0905609130859375,0.1446533203125,1.0559539794921875
1639426286816822300,11.436822265625,0.1561737060546875,0.1352081298828125,1.104339599609375
1639426286826784300,11.4467841796875,0.1600799560546875,0.128875732421875,1.083038330078125
1639426286836747300,11.456747314453125,0.15179443359375,0.1219940185546875,1.0395965576171875
1639426286846710300,11.466710205078124,0.1410369873046875,0.1191864013671875,1.0191650390625
1639426286856673300,11.47667333984375,0.12872314453125,0.115386962890625,1.014801025390625
1639426286866636300,11.48663623046875,0.11138916015625,0.1088104248046875,1.0126953125
1639426286876599300,11.496599365234376,0.099853515625,0.100799560546875,1.010894775390625
1639426286886561300,11.506561279296875,0.10198974609375,0.089752197265625,1.008880615234375
1639426286896524300,11.516524169921874,0.118316650390625,0.0800323486328125,0.99981689453125
1639426286906487300,11.5264873046875,0.1373443603515625,0.07110595703125,0.9863739013671875
1639426286916450300,11.5364501953125,0.1547393798828125,0.064910888671875,0.9689483642578125
1639426286926413300,11.546413330078124,0.1679229736328125,0.059967041015625,0.9542694091796875
1639426286936375300,11.556375244140625,0.17523193359375,0.0542755126953125,0.9351654052734375
1639426286946338300,11.56633837890625,0.1819305419921875,0.0496063232421875,0.91278076171875
1639426286956301300,11.57630126953125,0.19696044921875,0.05181884765625,0.901153564453125
1639426286966264300,11.586264404296875,0.205413818359375,0.0568389892578125,0.889404296875
1639426286976227300,11.596227294921874,0.21490478515625,0.0652008056640625,0.887451171875
1639426286986190300,11.6061904296875,0.2122039794921875,0.0739898681640625,0.8940887451171875
1639426286996152000,11.616152099609375,0.2051849365234375,0.0857086181640625,0.903289794921875
1639426287006115000,11.626114990234376,0.1923065185546875,0.0921783447265625,0.9129638671875
1639426287016078300,11.636078369140625,0.1755218505859375,0.09295654296875,0.924835205078125
1639426287026041300,11.646041259765624,0.157562255859375,0.0915679931640625,0.9343109130859375
1639426287036004400,11.65600439453125,0.137359619140625,0.090667724609375,0.9388275146484375
1639426287045967400,11.66596728515625,0.12469482421875,0.0889129638671875,0.9461517333984375
1639426287055929000,11.67592919921875,0.124969482421875,0.0844268798828125,0.95697021484375
1639426287065892000,11.68589208984375,0.1270294189453125,0.0788726806640625,0.964111328125
1639426287075855400,11.69585546875,0.1256561279296875,0.0751495361328125,0.9714508056640625
1639426287085818400,11.705818359375,0.1237945556640625,0.07196044921875,0.9806671142578125
1639426287095781400,11.715781494140625,0.118255615234375,0.071990966796875,0.988525390625
1639426287105744400,11.725744384765624,0.11163330078125,0.076141357421875,0.9948577880859375
1639426287115706000,11.7357060546875,0.105865478515625,0.0801849365234375,1.0019989013671875
1639426287125669000,11.745669189453125,0.099395751953125,0.083831787109375,1.0065460205078125
1639426287135632400,11.75563232421875,0.0949249267578125,0.0862884521484375,1.009307861328125
1639426287145595400,11.765595458984375,0.0924224853515625,0.0870208740234375,1.0108642578125
1639426287155558400,11.775558349609375,0.0883941650390625,0.0865631103515625,1.011566162109375
1639426287165520100,11.78552001953125,0.083831787109375,0.085174560546875,1.012603759765625
1639426287175483100,11.795483154296875,0.081512451171875,0.0850982666015625,1.01287841796875
1639426287185446100,11.805446044921876,0.0779876708984375,0.0842437744140625,1.01507568359375
1639426287195409400,11.815409423828125,0.0748138427734375,0.0837249755859375,1.0167388916015625
1639426287205372400,11.825372314453125,0.0719451904296875,0.082733154296875,1.0172271728515625
1639426287215335400,11.83533544921875,0.070892333984375,0.0810089111328125,1.018829345703125
1639426287225297200,11.845297119140625,0.0685577392578125,0.0782928466796875,1.0202178955078125
1639426287235260200,11.85526025390625,0.06982421875,0.0771636962890625,1.0189056396484375
1639426287245223200,11.86522314453125,0.07098388671875,0.076629638671875,1.019012451171875
1639426287255186400,11.8751865234375,0.0707244873046875,0.0788421630859375,1.0185699462890625
1639426287265149400,11.8851494140625,0.0719451904296875,0.0800018310546875,1.0167694091796875
1639426287275112200,11.8951123046875,0.07220458984375,0.0810699462890625,1.0150146484375
1639426287285074200,11.90507421875,0.07275390625,0.0825347900390625,1.0132598876953125
1639426287295037200,11.915037109375,0.073883056640625,0.0844879150390625,1.0113983154296875
1639426287305000200,11.925000244140625,0.0740814208984375,0.0882110595703125,1.0107269287109375
1639426287314963500,11.93496337890625,0.0751953125,0.090728759765625,1.012939453125
1639426287324926500,11.944926513671875,0.0751953125,0.090087890625,1.0169830322265625
1639426287334888200,11.95488818359375,0.0784912109375,0.0872650146484375,1.019500732421875
1639426287344851200,11.964851318359376,0.0811309814453125,0.0819091796875,1.0203704833984375
1639426287354814200,11.974814208984375,0.082977294921875,0.0761566162109375,1.0171966552734375
1639426287364776700,11.984776611328124,0.083282470703125,0.0705108642578125,1.006683349609375
1639426287374739700,11.99473974609375,0.085723876953125,0.0693817138671875,0.9913177490234375
1639426287384702700,12.00470263671875,0.09228515625,0.073699951171875,0.9773712158203125
1639426287394664700,12.014664794921876,0.10113525390625,0.07977294921875,0.966583251953125
1639426287404627700,12.024627685546875,0.114288330078125,0.0821533203125,0.9577484130859375
1639426287414590700,12.0345908203125,0.128570556640625,0.0844879150390625,0.95416259765625
1639426287424553700,12.0445537109375,0.142822265625,0.0860137939453125,0.954864501953125
1639426287434516700,12.054516845703125,0.152313232421875,0.0835723876953125,0.9543304443359375
1639426287444479700,12.064479736328124,0.1536407470703125,0.0798187255859375,0.9547271728515625
1639426287454441700,12.074441650390625,0.1438751220703125,0.0754852294921875,0.9599609375
1639426287464404500,12.084404541015624,0.1288909912109375,0.072113037109375,0.96783447265625
1639426287474367700,12.09436767578125,0.116302490234375,0.071533203125,0.9732208251953125
1639426287484330800,12.104330810546875,0.1089324951171875,0.0735321044921875,0.9754486083984375
1639426287494293800,12.114293701171874,0.1055908203125,0.0759124755859375,0.9746246337890625
1639426287504256800,12.1242568359375,0.1059417724609375,0.0782318115234375,0.9717559814453125
1639426287514218500,12.134218505859375,0.1068878173828125,0.080322265625,0.973236083984375
1639426287524181500,12.144181396484376,0.10723876953125,0.0810546875,0.9785614013671875
1639426287534144500,12.15414453125,0.1052703857421875,0.0813140869140625,0.9864501953125
1639426287544107800,12.164107666015624,0.100067138671875,0.079010009765625,0.9930572509765625
1639426287554070800,12.17407080078125,0.0933837890625,0.077972412109375,0.997467041015625
1639426287564033800,12.18403369140625,0.0863800048828125,0.07757568359375,1.0005645751953125
1639426287573995500,12.19399560546875,0.080810546875,0.0786285400390625,1.000152587890625
1639426287583958500,12.20395849609375,0.080413818359375,0.0811004638671875,1.0005950927734375
1639426287593921500,12.213921630859375,0.08172607421875,0.0832366943359375,1.0031585693359375
1639426287603884800,12.223884765625,0.08270263671875,0.08392333984375,1.0060577392578125
1639426287613847800,12.233847900390625,0.0849761962890625,0.0838775634765625,1.007568359375
1639426287623809500,12.2438095703125,0.083709716796875,0.082733154296875,1.0102386474609375
1639426287633772500,12.2537724609375,0.0805511474609375,0.08111572265625,1.00921630859375
1639426287643735600,12.263735595703125,0.0772552490234375,0.0816650390625,1.00640869140625
1639426287653698600,12.273698486328126,0.07427978515625,0.081390380859375,1.0023040771484375
1639426287663661800,12.283661865234375,0.071533203125,0.0817413330078125,0.99957275390625
1639426287673624800,12.293624755859375,0.0723114013671875,0.082672119140625,0.998138427734375
1639426287683586600,12.303586669921875,0.0753936767578125,0.08270263671875,0.99737548828125
1639426287693549600,12.313549560546875,0.078125,0.082489013671875,0.99761962890625
1639426287703512600,12.3235126953125,0.0792083740234375,0.081085205078125,0.9993896484375
1639426287713475600,12.3334755859375,0.0794219970703125,0.079864501953125,1.000396728515625
1639426287723438800,12.34343896484375,0.0772705078125,0.0773468017578125,1.003204345703125
1639426287733401900,12.35340185546875,0.07330322265625,0.0748291015625,1.004730224609375
1639426287743363600,12.363363525390625,0.0699920654296875,0.0735626220703125,1.00701904296875
1639426287753326600,12.37332666015625,0.0684051513671875,0.07366943359375,1.006103515625
1639426287763289600,12.38328955078125,0.0704498291015625,0.0764312744140625,1.004730224609375
1639426287773252600,12.393252685546875,0.0739288330078125,0.07818603515625,1.0034027099609375
1639426287783215900,12.4032158203125,0.0780029296875,0.0795135498046875,1.0017852783203125
1639426287793179000,12.413178955078125,0.08001708984375,0.080169677734375,1.00018310546875
1639426287803140600,12.423140625,0.0787811279296875,0.0815277099609375,0.9973297119140625
1639426287813103600,12.433103515625,0.0771636962890625,0.0825958251953125,0.9969482421875
1639426287823066600,12.443066650390625,0.0763397216796875,0.082855224609375,0.996917724609375
1639426287833029600,12.453029541015624,0.0752410888671875,0.0819854736328125,0.9990692138671875
1639426287842993000,12.462992919921875,0.077056884765625,0.0810089111328125,0.999908447265625
1639426287852955600,12.47295556640625,0.0797119140625,0.0799407958984375,0.9998321533203125
1639426287862917600,12.482917724609376,0.082611083984375,0.080169677734375,0.9989166259765625
1639426287872880600,12.492880615234375,0.0828857421875,0.0806884765625,0.9962005615234375
1639426287882843600,12.50284375,0.08233642578125,0.080657958984375,0.9936370849609375
1639426287892806700,12.512806640625,0.0801849365234375,0.08099365234375,0.992095947265625
1639426287902770000,12.52277001953125,0.0788421630859375,0.08050537109375,0.9923858642578125
1639426287912731600,12.532731689453126,0.0792083740234375,0.079925537109375,0.9941558837890625
1639426287922694700,12.542694580078125,0.0796051025390625,0.080108642578125,0.9944305419921875
1639426287932657700,12.55265771484375,0.08050537109375,0.0819854736328125,0.9952545166015625
1639426287942620700,12.56262060546875,0.0813751220703125,0.0834808349609375,0.99749755859375
1639426287952583700,12.572583740234375,0.0827178955078125,0.083770751953125,0.999755859375
1639426287962546700,12.582546630859374,0.0823211669921875,0.0825042724609375,1.00286865234375
1639426287972508700,12.5925087890625,0.081146240234375,0.079803466796875,1.0045013427734375
1639426287982471700,12.6024716796875,0.0797576904296875,0.0774688720703125,1.00469970703125
1639426287992434700,12.6124345703125,0.07745361328125,0.075592041015625,1.00372314453125
1639426288002397700,12.622397705078125,0.07537841796875,0.0732421875,1.00140380859375
1639426288012360400,12.6323603515625,0.0753936767578125,0.0714569091796875,0.9991912841796875
1639426288022323700,12.64232373046875,0.0780029296875,0.0709991455078125,0.99798583984375
1639426288032285700,12.65228564453125,0.080963134765625,0.073028564453125,0.9983673095703125
1639426288042248700,12.662248779296876,0.084228515625,0.076385498046875,0.9990081787109375
1639426288052211700,12.672211669921875,0.087005615234375,0.0789947509765625,0.9998321533203125
1639426288062174700,12.6821748046875,0.0894775390625,0.07977294921875,0.9971923828125
1639426288072137500,12.692137451171876,0.0902099609375,0.0791168212890625,0.9927978515625
1639426288082100700,12.702100830078125,0.08978271484375,0.0773468017578125,0.98895263671875
1639426288092062700,12.712062744140624,0.09039306640625,0.07525634765625,0.9856719970703125
1639426288102025700,12.722025634765625,0.0886993408203125,0.0734100341796875,0.986053466796875
1639426288111988700,12.73198876953125,0.088836669921875,0.0718994140625,0.9864044189453125
1639426288121951500,12.741951416015626,0.0906219482421875,0.0714569091796875,0.989501953125
1639426288131914500,12.75191455078125,0.09246826171875,0.0730438232421875,0.9899749755859375
1639426288141877800,12.761877685546875,0.093414306640625,0.075531005859375,0.9897003173828125
1639426288151839700,12.77183984375,0.0941162109375,0.0775604248046875,0.989532470703125
1639426288161802800,12.781802734375,0.0930023193359375,0.0786285400390625,0.9915924072265625
1639426288171765800,12.791765869140624,0.0901336669921875,0.080291748046875,0.9925537109375
1639426288181728500,12.801728515625,0.08648681640625,0.0800933837890625,0.9931488037109375
1639426288191691500,12.81169140625,0.083343505859375,0.0795135498046875,0.993560791015625
1639426288201653800,12.82165380859375,0.08233642578125,0.08062744140625,0.995361328125
1639426288211616800,12.83161669921875,0.0830230712890625,0.08099365234375,0.9972991943359375
1639426288221579800,12.841579833984374,0.0863494873046875,0.0820465087890625,0.9987335205078125
