time,seconds_elapsed,z,y,x
1638754169683294700,0.016294677734375,0.1635807889163494,-0.05608326788023114,0.016591873034462332
1638754169693315800,0.02631591796875,0.15313888987898824,-0.058377881623432035,0.01845591334067285
1638754169703335700,0.036335693359375,0.1081201829791069,-0.049584115119278425,0.015440291846543549
1638754169713356800,0.046356689453125,0.0682663114964962,-0.04618563178740442,0.010169109977968037
1638754169723376600,0.056376708984375,0.08210019105970859,-0.04908288759887218,0.004490297156572342
1638754169733397800,0.066397705078125,0.10779168167710304,-0.05261975648812949,0.003870630888268351
1638754169743417900,0.07641796875,0.10988134743273258,-0.04603153720423579,0.0032430735744535923
1638754169753438700,0.086438720703125,0.1052092639684677,-0.03475194523371756,0.0037878479756414886
1638754169763458800,0.096458740234375,0.10335983670949936,-0.040878392224758864,0.01973839089926332
1638754169773479700,0.106479736328125,0.10974924548566341,-0.034153979340568186,0.01966108787935227
1638754169783500500,0.11650048828125,0.10237024115025997,-0.033236353038996455,0.024042115975171325
1638754169793520600,0.126520751953125,0.08989654402434825,-0.028674671146646142,0.022205621263012287
1638754169803541800,0.136541748046875,0.10014262822866439,-0.02625380067527294,0.009565773789957165
1638754169813561600,0.1465615234375,0.10726795006394385,-0.02496821784414351,0.0076331252269446846
1638754169823582700,0.156582763671875,0.10916413907408713,-0.02438230771496892,0.003917611835151911
1638754169833602600,0.1666025390625,0.1013362219274044,-0.026760288892686366,-0.010696604450792074
1638754169843623700,0.176623779296875,0.09831307471394539,-0.023716245021671054,-0.018739479522407055
1638754169853643800,0.186643798828125,0.09679740945398807,-0.030791517170146106,-0.02402417845968157
1638754169863664600,0.19666455078125,0.10216448944509028,-0.030861221405491232,-0.016380129979923365
1638754169873685800,0.206685791015625,0.09109832102954388,-0.03316379925943911,-0.01868274436648935
1638754169883705900,0.216705810546875,0.08916530714035034,-0.03818162742145359,-0.006563559766672551
1638754169893726700,0.226726806640625,0.09544716388881205,-0.022260493255406615,-0.006607800767198205
1638754169903746800,0.236746826171875,0.11548749687671661,-0.027809651815146205,-0.0025692294334992765
1638754169913768000,0.246767822265625,0.10722235735654831,-0.030485373830422758,0.0004875277886167168
1638754169923787800,0.256787841796875,0.10435469296574593,-0.028103958586603403,0.012478373301029204
1638754169933809000,0.266808837890625,0.11389876638054847,-0.03683912677131593,0.01383607152029872
1638754169943829800,0.276829833984375,0.10084522354006767,-0.03637187458574772,0.010466887348145246
1638754169953849900,0.286849853515625,0.0972100819081068,-0.03177987062036991,0.01057290500588715
1638754169963870700,0.29687060546875,0.1112222406476736,-0.04217332740612328,0.006932320013828575
1638754169973890800,0.306890869140625,0.10743804593384265,-0.03823986041471362,-0.004079780126921832
1638754169983911700,0.31691162109375,0.10844108549654483,-0.03155957893319428,-0.00904408800341189
1638754169993931800,0.326931884765625,0.09178338068425655,-0.03336903950795531,-0.000057977264933288094
1638754170003952600,0.33695263671875,0.10356500389277934,-0.028638430789485574,0.005650755770690739
1638754170013972700,0.34697265625,0.10320143127739428,-0.032605800050497055,0.004795782909169793
1638754170023993900,0.356993896484375,0.10718260986804962,-0.030761925749480723,0.01974628194477409
1638754170034014700,0.3670146484375,0.10444003316164016,-0.028601386714726684,0.02469656129591167
1638754170044034800,0.377034912109375,0.0986959365516901,-0.03136120681688189,0.01859356824569404
1638754170054056000,0.387055908203125,0.08323182543814182,-0.03268880215883255,0.012909458194673061
1638754170064076000,0.397075927734375,0.0719739338427782,-0.033269086264818906,0.014312201132066547
1638754170074097000,0.407096923828125,0.07957447197437285,-0.04447970465235412,0.01354377404283732
1638754170084117000,0.417116943359375,0.08329320023655891,-0.035251419188454744,-0.0042289428066462275
1638754170094137900,0.427137939453125,0.10152911415100097,-0.027128245422244072,-0.010129472087323664
1638754170104159000,0.437158935546875,0.09388064522445201,-0.022869784260168672,-0.003883088511042297
1638754170114178800,0.4471787109375,0.09924421808421612,-0.019515286200493573,-0.023795630400814116
1638754170124200000,0.457199951171875,0.10327741912305355,-0.012011121115460991,-0.028026363305747506
1638754170134219800,0.4672197265625,0.10416706143915652,-0.008635288006812333,-0.012599807723611592
1638754170144241000,0.477240966796875,0.09847907893061637,-0.005030395382642746,-0.004219809652119874
1638754170154261000,0.487260986328125,0.09172551301717757,-0.006223331494256854,-0.0038981034170836207
1638754170164281900,0.49728173828125,0.0875198780208826,-0.005669570069015026,0.009576441314443945
1638754170174302700,0.507302734375,0.09184007930755615,0.0014746756624430418,0.012804025058820842
1638754170184322800,0.51732275390625,0.08284370290338992,-0.011008446878939867,0.017391864305734632
1638754170194343700,0.52734375,0.08073942410051822,-0.009296674524992703,0.007466317292675375
1638754170204363800,0.53736376953125,0.09554945521950721,-0.004709200604259968,-0.014017529034428298
1638754170214385000,0.547385009765625,0.10003799881041049,-0.018341127854585648,-0.0039527562137693165
1638754170224404700,0.55740478515625,0.09300853856503963,-0.017290668953582642,-0.018859708368591962
1638754170234426000,0.567426025390625,0.08912088347673415,-0.01878339172936976,-0.01834236996360123
1638754170244445700,0.57744580078125,0.094652798640728,-0.011914528873190283,-0.014616773569211363
1638754170254467000,0.587467041015625,0.11621055045425892,-0.006303557123616337,-0.005894903257489204
1638754170264488000,0.597488037109375,0.10049217231869698,-0.019875132488831878,-0.0010530161842703819
1638754170274508000,0.607508056640625,0.09406067796647548,-0.025559973192214966,0.008302183594927192
1638754170284529000,0.61752880859375,0.07907002958357334,-0.025389438930898903,0.025675489330664276
1638754170294549000,0.627549072265625,0.07438742472529411,-0.026569223299995063,0.013673172576166688
1638754170304569900,0.63756982421875,0.09141688545942306,-0.028524083694815634,0.009318411432765423
1638754170314590000,0.64758984375,0.10529168155491352,-0.03583119183778763,0.008328194819018244
1638754170324611000,0.657611083984375,0.11288637446761131,-0.0442338401325047,0.014656557590328157
1638754170334632000,0.6676318359375,0.10836568217277526,-0.04817614801749587,0.00876947231311351
1638754170344652000,0.677652099609375,0.10848083298504352,-0.037696839579194785,0.0109452089169994
1638754170354673000,0.6876728515625,0.10888473761081695,-0.05458250792846083,0.004031885864585638
1638754170364693000,0.69769287109375,0.10377893890440464,-0.053689796872436996,0.01135452037025243
1638754170374713900,0.7077138671875,0.11902268526554106,-0.0527210979707539,0.008377185059897601
1638754170384734000,0.71773388671875,0.11317337471544742,-0.04331599463522434,0.0009512363102287053
1638754170394754800,0.7277548828125,0.11452128219306468,-0.03132357822023332,-0.010044570282846688
1638754170404776000,0.73777587890625,0.09896540114283561,-0.01615501598715782,-0.014063961992040276
1638754170414795800,0.747795654296875,0.08803133467435836,-0.018783099468424914,-0.018009119421243665
1638754170424817000,0.75781689453125,0.09045710051655768,-0.005213789125531911,-0.02302376924548298
1638754170434837000,0.7678369140625,0.08867138614356518,0.010925225574895739,-0.01845320992693305
1638754170444857900,0.77785791015625,0.09871405673027038,0.006168751762807369,-0.006095905722305178
1638754170454878000,0.7878779296875,0.0949918213367462,0.0019867899030447003,0.022881693893671035
1638754170464898800,0.79789892578125,0.09245967251062392,-0.01766666265912354,0.0397188469260931
1638754170474919700,0.807919677734375,0.09771627786457537,-0.02126563699916005,0.05691149886529892
1638754170484939800,0.817939697265625,0.10639818149209022,-0.006137845167890191,0.05396989245545119
1638754170494961000,0.8279609375,0.1190782148450613,-0.011872954753786325,0.045708881121128794
1638754170504980700,0.837980712890625,0.12937632149755954,-0.01660670527741313,0.027702099787443875
1638754170515002000,0.848002197265625,0.116956400385499,-0.0004929711487144232,-0.008249941951036453
1638754170525022000,0.85802197265625,0.1024514896929264,0.010687836622446776,-0.024243081907369193
1638754170535043000,0.86804296875,0.07942132723927497,0.018815978824719786,-0.02079604672603309
1638754170545064000,0.87806396484375,0.07224106034636497,0.012339841613173485,0.0001730915445834398
1638754170555084000,0.888083984375,0.06742927615046501,-0.01028707380183041,0.04701006338018924
1638754170565105000,0.89810498046875,0.09120938018858432,-0.03135375416278839,0.06322740401383489
1638754170575125000,0.908125,0.11196692153513431,-0.04046389313973486,0.055060537236370145
1638754170585145900,0.918145751953125,0.10458733267784118,-0.033425445870310065,0.041974297702684994
1638754170595166000,0.928166015625,0.10678981115818023,-0.034712416940927505,0.01028404159452766
1638754170605186800,0.938186767578125,0.12202420516908168,-0.01958849756717682,-0.030468349630385635
1638754170615207000,0.94820703125,0.12336802099347113,-0.0014710954658687114,-0.05909414013400673
1638754170625228000,0.95822802734375,0.11172609851658344,0.00170534261316061,-0.08364369417466223
1638754170635249000,0.968248779296875,0.08647241479456425,-0.006893997297435998,-0.08284406822957098
1638754170645269000,0.97826904296875,0.061657707011699675,-0.0078769439201802,-0.07669402116723358
1638754170655289900,0.988289794921875,0.05627718301713466,-0.004765241640433669,-0.06782843153588473
1638754170665310000,0.99831005859375,0.07631517791748046,-0.0027730449099093676,-0.0357594417758286
1638754170675330800,1.008330810546875,0.0988829835563898,-0.013047405360639095,-0.0007982377056032419
1638754170685351000,1.018350830078125,0.11664017404317856,-0.03457541962303221,0.052885275556519624
1638754170695371800,1.028371826171875,0.12438742716908455,-0.033466143206879496,0.07995992762800305
1638754170705393000,1.038392822265625,0.10729074641764164,-0.009948562562465667,0.06306585677657275
1638754170715412700,1.048412841796875,0.09273907397389411,-0.012098507137969136,-0.0002304112223908305
1638754170725433900,1.058433837890625,0.07986848648488522,0.02245331241376698,-0.043819231449626385
1638754170735454000,1.068453857421875,0.06194470725953578,0.034686771043017504,-0.07802779052164405
1638754170745474800,1.078474853515625,0.03208791365623474,0.02856733831465244,-0.09530892446190119
1638754170755495000,1.088494873046875,0.016145663636922835,0.020521029176935553,-0.0870243495889008
1638754170765515800,1.098515869140625,0.0403156437754631,0.022896745332330465,-0.05971724046841263
1638754170775537000,1.108536865234375,0.08410393209755421,0.005998290566727519,-0.02074628930017352
1638754170785556700,1.118556640625,0.10454583162367344,-0.008837167254462838,0.03674604166038334
1638754170795578000,1.128578125,0.09531564646363258,-0.02612681329473853,0.0707539635937661
1638754170805598000,1.138597900390625,0.11973054127395152,-0.02546118899285793,0.07186641834769397
1638754170815619000,1.148619140625,0.1565694488495588,0.0007178659457713365,0.04745408082064241
1638754170825639000,1.158638916015625,0.12248714650571346,0.013238617083802818,0.03880849061552435
1638754170835660000,1.168659912109375,0.06937222691178321,0.024290830039232967,0.018218232127279042
1638754170845681000,1.178680908203125,0.05682955620288849,0.022589359883591533,-0.045883616633526976
1638754170855701000,1.188700927734375,0.0941337432026863,0.023269816428422928,-0.07720299360267817
1638754170865721900,1.198721923828125,0.09734627550840377,0.013525105874985456,-0.0838392898119986
1638754170875742000,1.208741943359375,0.06511340042352676,0.011428498921915888,-0.05999017565827816
1638754170885762800,1.2187626953125,0.06727145524024963,0.0026521219439804553,-0.05076210939008742
1638754170895783000,1.228782958984375,0.09889467399418353,-0.0043517654687166216,-0.05643325036168098
1638754170905804000,1.238803955078125,0.13114917638897894,0.006524725593626499,-0.03205412098448723
1638754170915825000,1.248824951171875,0.10878653793334961,-0.028345950648933648,0.01856266165077686
1638754170925845000,1.258844970703125,0.10255962624251842,-0.018983444346114993,0.039118616010621186
1638754170935865900,1.268865966796875,0.09526946923434734,0.03117978583537042,0.042243104706704615
1638754170945886000,1.278885986328125,0.08569324711561202,0.028367066502198574,0.02182933529652655
1638754170955906800,1.28890673828125,0.10804419513344764,0.009853139363974332,0.00456960947047919
1638754170965927000,1.298927001953125,0.11724573872089385,0.060516354956850406,-0.002192432010360062
1638754170975947800,1.30894775390625,0.05130640886723995,0.07195325638093054,0.0010818038873374462
1638754170985969000,1.318968994140625,0.03621405367553234,0.055359118324145674,-0.04690678566880524
1638754170995988700,1.32898876953125,0.09026479281485081,0.07522884398549795,-0.0467674502633512
1638754171006009900,1.339009765625,0.10138181463479995,0.07527962432466447,-0.0031437779184430837
1638754171016030000,1.349030029296875,0.11118541576862334,0.023009850317984817,0.0364446475610137
1638754171026050800,1.35905078125,0.1191822597414255,0.0057172086030244824,0.08284867133945226
1638754171036071000,1.36907080078125,0.09764671975970268,-0.014638035552948712,0.13084405596256254
1638754171046091800,1.379091796875,0.0668587827861309,-0.056675096293538806,0.11958557984530925
1638754171056112400,1.3891123046875,0.07321195120513439,-0.07097425528094171,0.09459591735433787
1638754171066133200,1.39913330078125,0.07714286091327667,-0.08962539893276988,0.11808967873174696
1638754171076154000,1.409154052734375,0.08258709779381751,-0.13812018444538116,0.09908807767443359
1638754171086174200,1.41917431640625,0.09027999038398266,-0.20500030228048563,0.05300901153404265
1638754171096195300,1.4291953125,0.09884440511167049,-0.2353163839586079,-0.03893131327759474
1638754171106215200,1.439215087890625,0.12229659236967563,-0.19753551935777067,-0.11389883944578467
1638754171116236300,1.449236328125,0.14925298835635184,-0.10900712188147008,-0.10210337037499993
1638754171126256000,1.459256103515625,0.15662380938529968,-0.031022841707989572,-0.012866276640072465
1638754171136277200,1.46927734375,0.13806056321263313,-0.02728445889726281,0.10299995388854294
1638754171146298000,1.479298095703125,0.12294015097022055,-0.06153554193675518,0.174665735097602
1638754171156318200,1.489318115234375,0.11318506515324116,-0.07189984569326043,0.17548753634188324
1638754171166339000,1.499339111328125,0.11075462313592434,-0.07092690900787711,0.13233064125850796
1638754171176359200,1.509359130859375,0.12654255937635897,-0.09121369103752076,0.053839872867614026
1638754171186380000,1.519380126953125,0.1365454824745655,-0.0752602620370686,-0.03723291186187416
1638754171196400000,1.529400146484375,0.12123100896477698,-0.029204101848229764,-0.13104447390548885
1638754171206421200,1.539421142578125,0.06024141047298908,0.05034055950976908,-0.21387173713073132
1638754171216442400,1.5494423828125,0.004947393274307251,0.11909954989403486,-0.27872487918287514
1638754171226462200,1.559462158203125,-0.016628478717803954,0.1670716267067939,-0.3017736732717603
1638754171236483300,1.5694833984375,-0.007220598903298378,0.17928652676604687,-0.2520050684310496
1638754171246503400,1.57950341796875,0.04188333148360252,0.12345358038507401,-0.08965681698434054
1638754171256524300,1.589524169921875,0.12155951026678084,0.053943625503033395,0.10603837173637003
1638754171266544400,1.59954443359375,0.1930699182510376,0.008596125040203332,0.24564766222834586
1638754171276565200,1.609565185546875,0.2141355026334524,-0.012012144028767944,0.2965663504196331
1638754171286586400,1.61958642578125,0.14259645307660102,-0.022912965814769266,0.2640161530138925
1638754171296606200,1.629606201171875,0.06077741704583168,-0.005988792086020112,0.2018894767835736
1638754171306627300,1.63962744140625,0.0391436773866415,0.058889265211671586,0.10165179068259894
1638754171316647200,1.649647216796875,0.0597176788598299,0.11484890671223401,0.0169332338180393
1638754171326668300,1.659668212890625,0.12040858666598796,0.1310894090257585,-0.05686623495146632
1638754171336688400,1.6696884765625,0.15239479351341723,0.11705664588958024,-0.11945252805016934
1638754171346709200,1.679709228515625,0.14566636204123495,0.1030591001972556,-0.14488324883952736
1638754171356730000,1.689730224609375,0.09438508761525154,0.07449994518905878,-0.1385309572033584
1638754171366750200,1.699750244140625,0.053415363845229144,0.03426175056397915,-0.11178148196563124
1638754171376771300,1.709771240234375,0.03085048081576824,-0.010625511975958943,-0.07969247233085335
1638754171386791200,1.719791259765625,0.043025487256050106,-0.047551586378365755,-0.06937639163024722
1638754171396812300,1.729812255859375,0.07469196062982082,-0.05814378060661256,-0.043293088683672244
1638754171406832000,1.73983203125,0.1082856026738882,-0.07304616618417203,-0.0396432244066149
1638754171416853200,1.749853271484375,0.10742752453982829,-0.07476948284544051,-0.038516485399007795
1638754171426873000,1.759873046875,0.09774082778394222,-0.05605572228617966,-0.04026526529509574
1638754171436894200,1.769894287109375,0.10628419972360134,-0.03845525673106313,-0.05024159264732152
1638754171446915000,1.7799150390625,0.10927344466745853,-0.030638299369812008,-0.04894223701916635
1638754171456935200,1.78993505859375,0.10971534321606159,-0.026735519777610895,-0.033822190102934836
1638754171466956000,1.7999560546875,0.11519289784431457,-0.021516469955071806,0.0006204699859023093
1638754171476976000,1.80997607421875,0.11724866133034229,-0.03135126994475722,0.04608681105542928
1638754171486997200,1.819997314453125,0.1255570554703474,-0.03487571774385869,0.07613861577417701
1638754171497017000,1.83001708984375,0.10692425119280814,-0.04438632728047669,0.1075660196950659
1638754171507038500,1.84003857421875,0.10297931295931338,-0.04074943208284676,0.13323058577291666
1638754171517059300,1.850059326171875,0.09544248771369457,-0.035320465836673975,0.13665234038252383
1638754171527079400,1.860079345703125,0.09269581935405731,-0.02725340617187321,0.13373203248903154
1638754171537100300,1.870100341796875,0.08727320978343486,-0.011052212955430149,0.1234974195268005
1638754171547120400,1.880120361328125,0.10221884998083114,0.006750716369226574,0.0891123713767156
1638754171557141200,1.890141357421875,0.08185469186604022,0.019686112722754476,0.06085548725072294
1638754171567161300,1.900161376953125,0.06494388907551765,0.028443127413094044,0.041385866822861134
1638754171577182200,1.91018212890625,0.0731762953698635,0.03405884840302169,0.016532690193131565
1638754171587203300,1.920203369140625,0.0796422765135765,0.028758623103052376,-0.006565495995432138
1638754171597223200,1.93022314453125,0.07443710908591747,0.02423698096014559,-0.01747731409948319
1638754171607244300,1.940244384765625,0.07658171989917754,0.024200083015859127,-0.020921317073516545
1638754171617264400,1.950264404296875,0.07351590258777141,0.010400105722248554,-0.017099164969474077
1638754171627285200,1.96028515625,0.07136193942427635,0.010647212351113558,-0.02100983560718596
1638754171637305300,1.970305419921875,0.07252221537530422,0.030328210507333277,-0.01810176614075899
1638754171647326200,1.980326171875,0.08220189786851406,0.028041268613934515,-0.025435579627566037
1638754171657346300,1.99034619140625,0.07975742732584476,0.0326736045897007,-0.03397968221958726
1638754171667367200,2.0003671875,0.08073416340351104,0.02526866209544241,-0.030019692547433075
1638754171677388300,2.01038818359375,0.08798048126995563,0.024627149321511388,-0.0314294497475028
1638754171687408000,2.020408203125,0.08488309977650642,0.010664017355442047,-0.029073022814467546
1638754171697429200,2.03042919921875,0.09149521139264107,-0.0031130174539983273,-0.0372763491448015
1638754171707449000,2.040448974609375,0.10752221708595752,-0.00763093326985836,-0.031375819864124056
1638754171717470200,2.05047021484375,0.11384615941047668,-0.016215075611323116,-0.01714044682793319
1638754171727490300,2.060490234375,0.11372691694498062,-0.01096701889000833,-0.012539857697300613
1638754171737511200,2.07051123046875,0.11913725155591964,-0.01247172436453402,-0.004274535514041781
1638754171747532000,2.080531982421875,0.11631459535062312,-0.004710223517566919,0.004272416622191667
1638754171757552000,2.09055224609375,0.11467793405950069,0.009908230552077292,-0.0013773893004283308
1638754171767573200,2.1005732421875,0.11421031654775142,0.005338000027090311,0.0145636916751042
1638754171777593000,2.110593017578125,0.10698971764445304,0.006681377460062503,0.011072050167061387
1638754171787614500,2.120614501953125,0.10216039779186248,0.004961640995368361,-0.0013142974689602852
1638754171797634300,2.13063427734375,0.09327157341539859,-0.001783010959252715,0.0023277488278225064
1638754171807655400,2.140655517578125,0.10071370611488818,-0.005672419613227248,-0.0002463759765028953
1638754171817676300,2.15067626953125,0.10635901852548121,-0.01504084420017898,-0.005591901722922921
1638754171827696400,2.1606962890625,0.10243512308001518,-0.021488997426256536,-0.010413622790947557
1638754171837717200,2.17071728515625,0.09297989699244498,-0.019622107575833797,0.002300641625188291
1638754171847737300,2.1807373046875,0.09371639457345009,-0.026122502445802092,0.006775375886447727
1638754171857758200,2.19075830078125,0.089811203828454,-0.021535905307903884,0.02191865754779428
1638754171867778300,2.2007783203125,0.0894932239204645,-0.015454028110951184,0.031802740039303896
1638754171877799200,2.210799072265625,0.0902262143701315,-0.013142682428658008,0.043292321498692034
1638754171887820300,2.2208203125,0.09201017517745494,-0.004395458479970693,0.04780819148793816
1638754171897840400,2.23084033203125,0.09572598083019256,-0.01089241928383708,0.05036247908063233
1638754171907861200,2.240861328125,0.08224106083512306,-0.002049845201894641,0.03251782950609922
1638754171917881300,2.25088134765625,0.07954583040177822,0.003817877787724137,0.023812289274670183
1638754171927902200,2.260902099609375,0.08253682891130447,0.014041530964523553,0.017920345159247515
1638754171937922300,2.27092236328125,0.07998831347227096,0.019502207523211836,0.009196319423057138
1638754171947943200,2.280943115234375,0.08224047631323338,0.02968319060206413,-0.0028499826036393642
1638754171957964300,2.29096435546875,0.08943944790661335,0.03608465514220297,0.00036218437589704986
1638754171967984000,2.300984130859375,0.09351122739017009,0.03561053482443094,0.007368373343534768
1638754171978005200,2.311005126953125,0.09234569074213504,0.038308760932460426,0.0054461731093004345
1638754171988025000,2.321025146484375,0.08876432512402534,0.023920316226407883,0.008811156030371785
1638754171998046200,2.331046142578125,0.08233224624991417,0.02618548467941582,0.012900215442292392
1638754172008066300,2.34106640625,0.07128069088160992,0.020060864319279788,0.023834647236950696
1638754172018087200,2.351087158203125,0.07743044568300246,0.012280293445661663,0.02451287529207766
1638754172028108300,2.3611083984375,0.08688041107356548,0.0015530746608972549,0.01741984829120338
1638754172038128000,2.371128173828125,0.09303133491873741,-0.01248684886842966,0.006335194370895624
1638754172048149200,2.381149169921875,0.10635784948170185,-0.002254062537103891,-0.009568988660350441
1638754172058169000,2.391169189453125,0.11100772111415863,0.006108180681988596,-0.02086268222145736
1638754172068190500,2.4011904296875,0.1059106902360916,0.008584872993826865,-0.008964702624268829
1638754172078210300,2.411210205078125,0.1284849256157875,0.007709478398784994,-0.0017323767505586147
1638754172088231400,2.4212314453125,0.12875380568504333,0.01697882652543485,-0.002443995618633926
1638754172098251300,2.431251220703125,0.11435352441072463,0.02249269457608461,0.00807487764507532
1638754172108272400,2.4412724609375,0.09182838886976241,0.0001784253068268299,-0.003938910351507365
1638754172118293200,2.451293212890625,0.0822919142395258,0.0017121376801282166,-0.015133454387076199
1638754172128313300,2.461313232421875,0.07930792999267577,0.00749605484381318,-0.01403152102716267
1638754172138334200,2.471334228515625,0.09843348622322082,0.0037995384134352204,-0.010371610280126333
1638754172148354300,2.481354248046875,0.11499299135804175,0.017590528682991862,-0.0011970642974600196
1638754172158375200,2.491375244140625,0.1247854865759611,0.026779139723628758,0.015290142786130308
1638754172168395300,2.501395263671875,0.13307108436226844,0.02953333380259573,0.05670417625755071
1638754172178416000,2.511416015625,0.11306816077530384,0.03778714821115136,0.06918163624312729
1638754172188437200,2.521437255859375,0.09736439568698406,0.048256885103508826,0.07417842161711305
1638754172198457300,2.531457275390625,0.07801321400702,0.04270860332660377,0.05588964500427246
1638754172208478200,2.541478271484375,0.07960252902507782,0.02173266998901963,0.008039075679332017
1638754172218498300,2.551498291015625,0.08518705115914345,-0.025801526863127946,-0.041593700887262816
1638754172228519200,2.561519287109375,0.10005787255465984,-0.05931428569070994,-0.11666761003937572
1638754172238539300,2.571539306640625,0.11706745954453944,-0.04304959878399968,-0.14818148666732012
1638754172248560000,2.58156005859375,0.10973989313542842,0.0007987491622567177,-0.14228029979951679
1638754172258581200,2.591581298828125,0.10918927351534366,0.023611396407708523,-0.11140395389012991
1638754172268601000,2.60160107421875,0.13019640570878982,0.049099327277019614,-0.0658089814722538
1638754172278622200,2.611622314453125,0.13983283358216284,0.06336334188580513,-0.014861395980045199
1638754172288642000,2.62164208984375,0.11382044044733047,0.03978548242151737,0.00968874258249998
1638754172298663200,2.6316630859375,0.06996200949847697,0.003732099200412631,0.0014757351083680987
1638754172308683300,2.641683349609375,0.04729951131343841,-0.01586217052042484,-0.02196618648394942
1638754172318704000,2.6517041015625,0.023024901756644248,-0.037512203727290035,-0.03537285361103713
1638754172328725200,2.661725341796875,0.03264554753899574,-0.05280329636149108,-0.05122702348809689
1638754172338745300,2.671745361328125,0.05578501558601856,-0.0743151632066816,-0.03196311823278666
1638754172348766200,2.68176611328125,0.08003332165777682,-0.07375197636596859,-0.0005397694325074554
1638754172358786300,2.691786376953125,0.11057926656901836,-0.06402290177308023,0.0365992901334539
1638754172368807400,2.701807373046875,0.13677870670855044,-0.061656830228865145,0.07874193014036864
1638754172378827300,2.7118271484375,0.15303426046073434,-0.04230594080984592,0.11691409561373292
1638754172388848400,2.721848388671875,0.1575549527555704,-0.017069573548808694,0.1621515963634476
1638754172398868200,2.7318681640625,0.1463186884701252,0.006264686417952179,0.14369162790216505
1638754172408889300,2.741889404296875,0.12918810544908046,0.005441314271092414,0.10246672379467636
1638754172418910200,2.75191015625,0.10065759201347828,0.0114225075725466,0.06198525846563279
1638754172428930300,2.761930419921875,0.09592062661945819,0.0034372079070657487,-0.02561820618547499
1638754172438951200,2.771951171875,0.11173369730114936,0.008582242645323276,-0.08320150336511432
1638754172448971300,2.78197119140625,0.10559972459077835,-0.00047207449115812774,-0.11058551364671439
1638754172458992000,2.7919921875,0.08935936840772628,-0.005218026909232139,-0.09474855063278227
1638754172469012200,2.80201220703125,0.08321662786900996,-0.016190160365775228,-0.054621269036270674
1638754172479033300,2.812033447265625,0.07154781738519668,-0.02511836690455675,-0.02316445635780692
1638754172489054200,2.82205419921875,0.08620821090042591,-0.018424568354338408,-0.0007756605476140976
1638754172499074300,2.83207421875,0.09191489810943602,-0.03215264945551753,-0.013657280887290835
1638754172509095200,2.84209521484375,0.06714169138073921,-0.04183963847234845,-0.04731280918642878
1638754172519115300,2.852115234375,0.025381694015860556,-0.0198293936509639,-0.05438837359584868
1638754172529136000,2.86213623046875,-0.009168810361623763,-0.010962342714890837,-0.015601839083805679
1638754172539156200,2.87215625,-0.027533319091796873,-0.05456453388035297,0.11646368496511131
1638754172549177000,2.882177001953125,-0.004031447473168373,-0.1049925524778664,0.29969840136766435
1638754172559198200,2.8921982421875,0.10350888979136944,-0.14847601263448595,0.3967246511414647
1638754172569218000,2.902218017578125,0.2836480147987604,-0.15527334462441503,0.44725499760229137
1638754172579239200,2.9122392578125,0.42534021251201626,-0.1444607856437564,0.36958248679172245
1638754172589259300,2.92225927734375,0.3620078502863645,-0.03317906989380717,0.20010054754018783
1638754172599280400,2.9322802734375,0.08196984267830848,0.10833813657872378,0.07254007982555777
1638754172609300200,2.94230029296875,-0.2526683546453714,0.20122545991688964,-0.14249854566007852
1638754172619321300,2.9523212890625,-0.40296003839969635,0.2578652657013386,-0.5037693869087845
1638754172629342200,2.96234228515625,-0.15979074898362158,0.2800948523618281,-0.7321659084763378
1638754172639362300,2.9723623046875,0.30781857945919033,0.2428430531363934,-0.7195742840591818
1638754172649383400,2.982383544921875,0.6319026495426893,0.27120427441969513,-0.510959882934764
1638754172659403300,2.9924033203125,0.5552507870167493,0.29933957799263294,-0.12728022600114344
1638754172669424400,3.00242431640625,0.1779851618438959,0.15213555805534124,0.25963158125411717
1638754172679444200,3.0124443359375,-0.18064882809519767,-0.07328180157095193,0.4821969489827752
1638754172689465300,3.02246533203125,-0.3248831115067005,-0.19375804664567112,0.5750132529113441
1638754172699485200,3.032485107421875,-0.295032747644186,-0.1545931803405285,0.5789170188842341
1638754172709506300,3.04250634765625,-0.14204934058785437,-0.07389043498858809,0.45199667570404706
1638754172719527200,3.052527099609375,0.0766232209533453,-0.06632482203990221,0.31012386072687803
1638754172729547300,3.06254736328125,0.30008477033674713,-0.050288829322531814,0.15427030506171285
1638754172739568000,3.072568115234375,0.43187692080438134,0.019516893635690213,-0.05840078757498413
1638754172749588200,3.082588134765625,0.368732190105319,-0.004956014972180128,-0.3316942528262734
1638754172759609300,3.092609375,0.14793255340754985,-0.033213922011479734,-0.4991405215317383
1638754172769629200,3.102629150390625,-0.11659516585767268,-0.0784844117153436,-0.5092698840212077
1638754172779650300,3.112650390625,-0.3087807024896145,-0.09434110234305262,-0.5126079424027353
1638754172789671200,3.122671142578125,-0.2920224599123001,-0.14205752389430998,-0.522689922086522
1638754172799691300,3.132691162109375,-0.08993512246906757,-0.1947772336255759,-0.4322444024099037
1638754172809712000,3.142712158203125,0.12410802570581435,-0.14406024201884865,-0.3940697527185082
1638754172819732200,3.152732177734375,0.1944189947724342,-0.10070281939469278,-0.2960832430778071
1638754172829753000,3.162753173828125,0.20123802713751793,-0.11632190187424421,-0.10850929189454764
1638754172839773200,3.172773193359375,0.19202187050282954,-0.07394136145822704,0.06803356218654662
1638754172849794000,3.1827939453125,0.1324672732502222,0.05592113612107932,0.18034714173488317
1638754172859815400,3.1928154296875,0.060389294511079786,0.11939034953415394,0.2064793618571013
1638754172869835300,3.202835205078125,0.036488778963685034,0.17386282121688126,0.1776793107651174
1638754172879856400,3.2128564453125,0.06115268009901046,0.23314875759594142,0.12668171211872248
1638754172889876200,3.222876220703125,0.0739864427089691,0.2722294527489692,0.08765870196968316
1638754172899897300,3.2328974609375,0.0878770208954811,0.21902429758831857,0.057084626942500466
1638754172909917400,3.24291748046875,0.11701192996501922,0.10428513486087322,0.0668122036980465
1638754172919938300,3.252938232421875,0.15936170991659163,-0.0208703540712595,0.08730360492169857
1638754172929958400,3.26295849609375,0.1981447372972965,-0.09812778127491474,0.05773366543576121
1638754172939979300,3.272979248046875,0.17674480639398096,-0.09360613913200795,0.01975837424136698
1638754172950000400,3.28300048828125,0.13254501466155053,-0.06892024536058307,0.054147842838242644
1638754172960020200,3.293020263671875,0.09704057056009768,-0.05479856183193624,0.13530742857959122
1638754172970041300,3.303041259765625,0.09366320308148861,-0.036001506903395056,0.20304368831999597
1638754172980061200,3.313061279296875,0.09951777432858944,-0.007115750289335847,0.23933387597166
1638754172990082300,3.323082275390625,0.12356617391407489,0.042536242434382435,0.2369920255532488
1638754173000102400,3.333102294921875,0.16212357584536075,0.10156053220257162,0.26793168248981236
1638754173010123300,3.343123291015625,0.19337328511178492,0.13262231768146157,0.29858477756995705
1638754173020144000,3.35314404296875,0.20887305206060408,0.14618899767585097,0.30237200449109075
1638754173030164200,3.363164306640625,0.16275485948622226,0.17743885307274757,0.2867439349874854
1638754173040185000,3.37318505859375,0.02866027729511261,0.09442520042993127,0.2490341993940994
1638754173050205200,3.383205078125,-0.047859483283758164,-0.09016396278887986,0.09200462221950292
1638754173060226300,3.393226318359375,0.03364449544847011,-0.24364070632010698,-0.1492379734503105
1638754173070246100,3.40324609375,0.18589491205513475,-0.3697711046990007,-0.41558373845554886
1638754173080267300,3.413267333984375,0.27164602683782574,-0.4366475692722946,-0.6118146049555391
1638754173090288000,3.4232880859375,0.20215046580731869,-0.3794304750565439,-0.5869544505957514
1638754173100308200,3.43330810546875,0.06213058522045612,-0.2859512502398342,-0.4197293868929147
1638754173110329000,3.4433291015625,0.06555529897212982,-0.1515682795614004,-0.10447985371537506
1638754173120349200,3.45334912109375,0.1350204648643732,0.01700439935810864,0.1858701429400593
1638754173130370000,3.4633701171875,0.1197188508361578,0.10291399263814091,0.30906266123615206
1638754173140390100,3.47339013671875,0.08566986624002457,0.1156865265801549,0.2052525965411216
1638754173150411000,3.483410888671875,0.08205284478664397,0.03471387824565172,-0.09444416085872799
1638754173160432000,3.49343212890625,0.05789163247644901,0.052998965064063666,-0.3611125454144552
1638754173170452200,3.5034521484375,-0.0698871906965971,0.20190299385227262,-0.500542643414624
1638754173180473000,3.51347314453125,-0.10863690032958984,0.4867964786674827,-0.4831095337830484
1638754173190493200,3.5234931640625,-0.09094283820688724,0.6835297417316586,-0.40216589234732086
1638754173200514000,3.53351416015625,-0.10633446860611438,0.5023319014515727,-0.2388620206762105
1638754173210534100,3.5435341796875,-0.02527121937870979,0.05243241722248494,-0.02253331884741783
1638754173220555000,3.553554931640625,0.18630583094358444,-0.3445782843187451,0.03613872341699898
1638754173230576000,3.563576171875,0.297694075807929,-0.7012688851051032,-0.07714620364783331
1638754173240596000,3.573595947265625,0.35336335605978964,-0.654519116628915,-0.09231947858864441
1638754173250617000,3.5836171875,0.31405601254403587,-0.2937813593436032,-0.05403568770065904
1638754173260637000,3.593636962890625,0.15662497842907905,0.0847000713597983,0.15329459189735353
1638754173270658000,3.603657958984375,0.013432897546887397,0.208787419603765,0.50719753472656
1638754173280678100,3.61367822265625,0.023093290817737578,0.26964038610383867,0.7437582927230745
1638754173290699000,3.623698974609375,0.0972054057329893,0.338345162082836,0.8411141397774219
1638754173300719000,3.633718994140625,0.12576046908795832,0.401305037734285,0.8521203946992755
1638754173310740200,3.643740234375,0.07207096447646617,0.3983951416369527,0.6866948546990752
1638754173320761000,3.653760986328125,-0.0048848494321107865,0.26212591882050035,0.46153187169265
1638754173330781200,3.66378125,0.002190203520655632,0.10439086025767028,0.26385345499916
1638754173340802300,3.67380224609375,0.04836451019644737,-0.01891658965498209,0.20110946885440498
1638754173350822100,3.683822265625,0.130123340472579,-0.12980316860750316,0.12628109542857854
1638754173360843300,3.69384326171875,0.23855390457510947,-0.2334226061012596,-0.0911636230844073
1638754173370863000,3.703863037109375,0.3588970247894525,-0.24548487288206813,-0.28112403101278466
1638754173380884200,3.71388427734375,0.2865636099845171,-0.19205248483680187,-0.1872510941707529
1638754173390905000,3.723905029296875,0.24440087703764438,-0.22659129877649245,-0.5703505583299323
1638754173400925200,3.73392529296875,0.2609083597242832,-0.1387974991850555,-0.7545641297020018
1638754173410946000,3.743946044921875,0.10993161631524562,-0.04308693511970341,-0.46608716037683184
1638754173420966100,3.753966064453125,0.0017296002715826034,-0.05533763714469969,-0.23085737698944284
1638754173430987000,3.763987060546875,0.01807692396044731,0.03802329505458474,-0.04094126486051827
1638754173441007000,3.774007080078125,0.08830605996251106,0.132019091091305,0.0946339478097856
1638754173451028200,3.7840283203125,0.1426753635317087,0.1750682514838874,0.18222851676838472
1638754173461049000,3.794049072265625,0.1254039107352495,0.15538959141522646,0.29047749549262225
1638754173471069200,3.804069091796875,0.05308393993377685,0.11368117810711265,0.4238969549011439
1638754173481090000,3.814090087890625,0.0003828618377447128,0.07792568185403942,0.5579311121419072
1638754173491110100,3.824110107421875,-0.0032779987573623654,0.0336113238312304,0.5848258776018396
1638754173501131000,3.834131103515625,0.07549392466247082,-0.033722675251215695,0.49958775384258475
1638754173511151000,3.844151123046875,0.18455284979641437,-0.06873582870438695,0.29416497010001913
1638754173521172000,3.854171875,0.27847441155314445,-0.10021262472495436,0.012207739666104316
1638754173531192000,3.864192138671875,0.3162941468596458,-0.10900843705572187,-0.2089001957958564
1638754173541213000,3.874212890625,0.247305366307497,-0.08703304435200988,-0.297935629478842
1638754173551234000,3.884234130859375,0.11815350121557712,-0.06304762700013816,-0.30046291946675624
1638754173561254100,3.894254150390625,-0.0014957915157079696,-0.03625065935887396,-0.22893766097323967
1638754173571275300,3.904275146484375,-0.055609659019112585,-0.006701105073839426,-0.12528231191588565
1638754173581295000,3.914295166015625,-0.06503624353408813,-0.0019200082771480083,-0.020270342351496218
1638754173591316200,3.924316162109375,-0.03414484618604183,0.01161591125279665,0.06749642310254275
1638754173601336000,3.934336181640625,0.015043255352973937,0.026042130685970187,0.10723828557804226
1638754173611357200,3.944357177734375,0.04368073629438877,0.04813946926891804,0.05544460465051233
1638754173621378300,3.95437841796875,0.030185879427194594,0.054055196118727326,-0.033209519830998034
1638754173631398100,3.964398193359375,-0.023164017966389654,0.06398644222021102,-0.15560995616763829
1638754173641419300,3.974419189453125,-0.04840425768494606,0.07086239240430295,-0.2361877964982763
1638754173651439000,3.984439208984375,-0.027465514552593228,0.06671594024933875,-0.25603180319648233
1638754173661460200,3.994460205078125,0.024936872857809066,0.042067017487436534,-0.23700607234491033
1638754173671480000,4.00447998046875,0.08394611118733883,-0.00780935857668519,-0.19836749493619427
1638754173681501200,4.014501220703125,0.11156827760636806,-0.049802653240785,-0.152661572957132
1638754173691522000,4.02452197265625,0.11225567534863948,-0.05779752445220947,-0.09030786477159708
1638754173701542100,4.034542236328125,0.11934300326108932,-0.043106735798716544,-0.01875889660893008
1638754173711563000,4.04456298828125,0.11052607507705688,-0.0007709843724966049,0.05002365731401369
1638754173721583000,4.0545830078125,0.10433306565582752,0.026767303155362604,0.10603137574000283
1638754173731604200,4.064604248046875,0.12649579762518406,0.046163566086068746,0.1466660954019986
1638754173741624000,4.0746240234375,0.14709259545207024,0.05455686203055084,0.12915847749579698
1638754173751645200,4.084645263671875,0.13560206414461135,0.045231107541546224,0.09184904806530103
1638754173761666000,4.094666015625,0.153102064999938,0.018950199663639068,0.04136098810993135
1638754173771686100,4.10468603515625,0.1537123058527708,0.011241159656271338,-0.009590908231213688
1638754173781707000,4.11470703125,0.12891338016092777,-0.004022898840531706,-0.04198255407437682
1638754173791727000,4.12472705078125,0.103144148132205,-0.0020155776061117647,-0.054393743890710174
1638754173801748000,4.134748046875,0.09835516029000281,0.016665157466381787,-0.04818151831235736
1638754173811768000,4.14476806640625,0.09898059871196746,0.04755136718265712,-0.04244702978096902
1638754173821789000,4.154788818359375,0.09795242470800876,0.07840382075980305,-0.037890206726826726
1638754173831809000,4.16480908203125,0.0977893431007862,0.0922616657204926,-0.048703313696756956
1638754173841830000,4.174829833984375,0.07663841852247714,0.08892185377329588,-0.03273074160441756
1638754173851851300,4.184851318359375,0.05650456203222275,0.0812078453298658,-0.035468861331418154
1638754173861871000,4.19487109375,0.06014730244874954,0.06959639105647802,-0.02865260544531047
1638754173871892200,4.204892333984375,0.07142331422269343,0.05489946492314338,-0.029908158464357255
1638754173881912300,4.214912353515625,0.07884674222171306,0.0313544848151505,-0.030956060082092878
1638754173891933200,4.22493310546875,0.07926701346039772,-0.003987900592386722,-0.035990839378908276
1638754173901953300,4.234953369140625,0.07897299894988537,-0.030770912773534654,-0.030585400138795373
1638754173911974100,4.24497412109375,0.07765840921998024,-0.059799950315803284,-0.030497977583669126
1638754173921995300,4.254995361328125,0.0926701003909111,-0.07671820576041936,-0.02087656461633742
1638754173932015000,4.26501513671875,0.10124737460017204,-0.08540646606348455,-0.016170103958435357
1638754173942036200,4.2750361328125,0.0968266355484724,-0.0760109342738986,0.005983129530213773
1638754173952056000,4.28505615234375,0.09597615619897842,-0.05785729181542992,0.021772344412282107
1638754173962077200,4.2950771484375,0.10440028567314147,-0.029685017232969402,0.03468976671770215
1638754173972097300,4.30509716796875,0.09153086722791194,-0.004424538443982601,0.04231653526909649
1638754173982118100,4.3151181640625,0.09150690183043479,0.004223682109639048,0.03932849590163678
1638754173992139000,4.325138916015625,0.09761340201199054,0.02280760574415326,0.04858436349220573
1638754174002159000,4.3351591796875,0.07855623484253883,0.028376272721961138,0.04755304768308997
1638754174012180000,4.345179931640625,0.09465805933773518,0.021296251333132385,0.056260304947569964
1638754174022200000,4.355199951171875,0.09729425306022167,0.022183190235495566,0.05208535735048354
1638754174032221200,4.36522119140625,0.09457096557617187,0.01669540647417307,0.04917180799134075
1638754174042241000,4.375240966796875,0.09142682233154774,0.015089213386550546,0.04044606522209942
1638754174052262100,4.38526220703125,0.09937632003128528,0.021023791067302226,0.03511993829589337
1638754174062281700,4.39528173828125,0.0913233619570732,0.024185908360034227,0.02843596701994538
1638754174072302800,4.405302734375,0.09555413139462471,0.03198518393412232,0.015211962983384727
1638754174082323700,4.41532373046875,0.08855506628751754,0.03394230935126543,0.006091266079805791
1638754174092343800,4.42534375,0.08858078525066375,0.04337451988942921,-0.0010130495000630617
1638754174102364700,4.43536474609375,0.08741057242751121,0.04892426297105849,-0.012662388098426163
1638754174112384800,4.445384765625,0.08353168516755104,0.04566555343605578,-0.012289353534951806
1638754174122406000,4.455406005859375,0.09565992985665797,0.04382401722259819,-0.017807605499774216
1638754174132425700,4.46542578125,0.09432312829494476,0.03322444340549409,-0.01676496457904577
1638754174142446800,4.47544677734375,0.09913783510029316,0.01895399905592203,-0.012076368371397255
1638754174152468000,4.485468017578125,0.08508709791600703,0.01694046727642417,-0.014706241950951516
1638754174162488000,4.495488037109375,0.08345803540945053,0.014417086278647184,-0.025337343417480587
1638754174172509000,4.505509033203125,0.0842260971724987,-0.004259630205854774,-0.008689027488045394
1638754174182529000,4.515529052734375,0.0864917040169239,-0.006299538535624742,-0.004338431063108146
1638754174192550000,4.5255498046875,0.10027823730707168,-0.01030037167482078,-0.0038221886366605756
1638754174202570000,4.535570068359375,0.10389525876045226,-0.007755728693306446,-0.010120265867561101
1638754174212590800,4.5455908203125,0.09298632673323154,-0.011471022889390586,-0.011559651020914316
1638754174222612000,4.555612060546875,0.09449263964295387,-0.0077908000066876405,-0.01482245220914483
1638754174232631800,4.5656318359375,0.09121756349503994,-0.010167100683972238,-0.004932999422773718
1638754174242653000,4.57565283203125,0.08898585892021656,-0.010616817212849855,-0.009700469552911817
1638754174252673000,4.585673095703125,0.09766250185072421,-0.01186447918638587,-0.008308430672623216
1638754174262694000,4.59569384765625,0.09182546626031399,-0.0036953473865985868,-0.003804433784261346
1638754174272714000,4.6057138671875,0.09720482121109962,-0.009601210429519414,-0.006743446378223598
1638754174282734800,4.61573486328125,0.1042249291062355,-0.014934680411964654,-0.00005516425333917141
1638754174292755000,4.6257548828125,0.09494330601990222,0.010047054500877856,0.0023249358162283898
1638754174302775800,4.63577587890625,0.09285071765482425,0.0024546266105026004,0.012100114573165774
1638754174312797000,4.645796875,0.08940379207134247,-0.0011082535028457642,0.0030473318066447973
1638754174322816800,4.655816650390625,0.09462941776514053,0.014366013678535818,0.0060934215042740105
1638754174332838000,4.665837890625,0.09354512965977191,0.01427921217791736,0.010098419361934065
1638754174342857700,4.675857666015625,0.10279986473917961,0.005005407071858644,0.011015789935179054
1638754174352878800,4.68587890625,0.10742343288660049,0.024809885477274654,0.004012961968407035
1638754174362899000,4.69589892578125,0.1026122332125902,0.01976370800361037,-0.0051860974010080095
1638754174372919800,4.705919921875,0.09258359115123749,0.015074235013127326,-0.00857058874014765
1638754174382940700,4.715940673828125,0.08077215732634067,0.011856295879930256,-0.010479089242592454
1638754174392960800,4.725960693359375,0.08810323086678981,0.02220730176344514,0.007446955005079507
1638754174402981600,4.735981689453125,0.08855214367806911,0.0168144297439605,-0.00331920755058527
1638754174413001700,4.746001708984375,0.09559387888312339,0.015953209804743528,0.002070376533269882
1638754174423023000,4.756023193359375,0.09769698864221572,0.012423135982453822,0.010266944329254329
1638754174433042700,4.766042724609375,0.09532266072630882,0.009265621799603104,0.006379070045240223
1638754174443064000,4.77606396484375,0.08410627018511295,0.00729892483651638,0.0031381518952548503
1638754174453085000,4.7860849609375,0.08694996917843818,0.0016678601469844578,0.004393668381683528
1638754174463105000,4.79610498046875,0.09293839593827724,0.00019603402875363826,0.008030965438112617
1638754174473126000,4.8061259765625,0.09145137225091457,0.002619096457213163,0.0008575301447883248
1638754174483146000,4.81614599609375,0.09639642743766308,0.008201572764664888,0.0031339506441727277
1638754174493166800,4.826166748046875,0.10178747282624244,0.008670797711610794,0.010943309220857917
1638754174503187000,4.83618701171875,0.09491583349108695,0.007209127661213279,0.006973382676579058
1638754174513207800,4.846207763671875,0.09609715223014355,0.003330605727434158,0.0036166926598176358
1638754174523228000,4.856227783203125,0.09639642743766308,0.0012217238146811722,0.003957724649831652
1638754174533249000,4.8662490234375,0.08951017505526541,0.0032077100001275537,-0.0027890461966395374
1638754174543270000,4.876269775390625,0.09563947159051894,0.003965177303925156,0.010984481481462716
1638754174553290000,4.8862900390625,0.09070610684156417,0.004782996492832899,0.009228431594371795
1638754174563310800,4.896310791015625,0.0937111338764429,0.004446384949609637,0.01213518588654697
1638754174573331000,4.9063310546875,0.090133859911561,0.002190203520655632,-0.0003286474324762821
1638754174583351800,4.916351806640625,0.09595803602039814,0.013432605285942553,0.008805676137655974
1638754174593372000,4.926371826171875,0.09460369880199432,0.007451265854015946,0.0076700231712311506
1638754174603392800,4.936392822265625,0.10059329460561275,0.012297536841407417,0.009721293145231902
1638754174613414000,4.946413818359375,0.09805179342925548,0.011635858062282204,0.0009677125209942459
1638754174623433700,4.956433837890625,0.0996849475890398,0.00911971052289009,-0.0019094138178974388
1638754174633454800,4.966454833984375,0.0967003788203001,0.015176745539531111,-0.003177972448989749
1638754174643475000,4.976474853515625,0.09311258346140384,0.013062310668826103,-0.015495309969410299
1638754174653495800,4.986495849609375,0.10089432337880135,0.011384002193063496,-0.0036113588975742457
1638754174663516000,4.996515869140625,0.08848083200752735,0.01433876034542918,-0.0031202509123831987
1638754174673536800,5.006536865234375,0.08833820866644382,0.006609042876213789,-0.0013161240998655556
1638754174683558000,5.016557861328125,0.09523439792096615,0.005329889785870909,-0.010633841412886976
1638754174693577700,5.02657763671875,0.0945002384275198,0.0011097148075699806,-0.004483173296041787
1638754174703599000,5.03659912109375,0.09331190542578696,0.0010883797585964203,0.0032293007774278517
1638754174713618700,5.04661865234375,0.08748363766372204,-0.0018969196625053882,0.000638188305683434
1638754174723640000,5.05664013671875,0.09317220469415187,-0.005040770646184682,0.004807071488164365
1638754174733660000,5.066659912109375,0.09916355406343937,-0.007850421239435672,0.0028084815494716165
1638754174743681000,5.076680908203125,0.08764788831472396,-0.001375014680251479,0.004821721068024635
1638754174753702000,5.086701904296875,0.10067162053883075,0.0034321664057672023,0.0016740341594442725
1638754174763722000,5.096721923828125,0.09244038328826427,-0.004607786056399345,-0.0029845687687397003
1638754174773742800,5.106742919921875,0.09647299980521201,0.003786094409972429,0.0024524711860343814
1638754174783763000,5.116762939453125,0.08988426906466483,0.002451484805345535,0.004057312566787004
1638754174793783800,5.12678369140625,0.09435936865210533,0.002841360905766487,-0.005616232446581125
1638754174803804000,5.136803955078125,0.09419394895732403,0.00990180081129074,0.008949395457282662
1638754174813824800,5.14682470703125,0.09717676416039467,0.004002878965809941,-0.0005341068767011166
1638754174823844900,5.156844970703125,0.09597849428653717,0.0044925621788948775,0.0004578267700970173
1638754174833866000,5.166865966796875,0.0914800138235092,0.007139788752049207,-0.005035144622996449
1638754174843886800,5.176886962890625,0.10015724127590656,0.004128916498273611,-0.006294131708145141
1638754174853907000,5.186906982421875,0.09790098678171634,0.006050532210618257,-0.003242635183036327
1638754174863927800,5.196927734375,0.09549684824943543,0.00992130922935903,0.0016841536946594715
1638754174873948000,5.206947998046875,0.0884527749568224,0.00527399488016963,0.00035232056900858877
1638754174883968800,5.21696875,0.08980243600010872,0.0013416238673031329,-0.0011360548252239823
1638754174893988900,5.22698876953125,0.09519055877923965,0.010022285385802387,0.004811345804482698
1638754174904009700,5.237009765625,0.09579261632561684,0.005504588765650987,0.011344400835037231
1638754174914030800,5.24703076171875,0.10584639282822608,0.004096621663868427,0.007304039403051138
1638754174924050700,5.25705078125,0.10000175845324992,0.007735416557639836,0.011798135951906442
1638754174934071800,5.26707177734375,0.09027999038398266,0.008419745559990406,0.014508856215327976
1638754174944092000,5.277091796875,0.0926695158690214,-0.000036021161451935764,0.012384594070352613
1638754174954112800,5.28711279296875,0.09268179082870483,0.009662439097464084,0.009581994272395969
1638754174964132900,5.2971328125,0.08280220184922218,0.006547814208269119,0.004834726680070162
1638754174974153700,5.30715380859375,0.09806348386704922,0.007816299774125218,0.0038204350709915157
1638754174984173800,5.317173828125,0.09597206454575061,0.0010945172384381294,0.0023360417321324346
1638754174994195000,5.32719482421875,0.08594108439683913,0.0088861940279603,-0.0071102338640019296
1638754175004216000,5.337216064453125,0.09731997202336788,0.00899367299042642,-0.011231734240800142
1638754175014236000,5.34723583984375,0.09806289934515952,0.005766966028884053,-0.014815803272649645
1638754175024257000,5.357257080078125,0.09386837026476859,-0.0023608839124441144,-0.011031389363110065
1638754175034276900,5.36727685546875,0.08909165738224983,0.00108925654143095,-0.014641177358105778
1638754175044298000,5.377298095703125,0.08715162923038006,0.0072290744706988335,0.004638911847025156
1638754175054317800,5.38731787109375,0.08729600613713263,0.005454319883137941,0.005795899862423539
1638754175064338400,5.39733837890625,0.09148527452051639,0.0049118835695087905,0.007929441292397678
1638754175074359300,5.407359375,0.09373159214258193,-0.004446896406263113,0.005981704758107662
1638754175084379400,5.41737939453125,0.1094447095811367,0.001229614860191941,0.012285188816487788
1638754175094400500,5.427400390625,0.10044424152374266,-0.00012172668352723121,0.004979615043476223
1638754175104420400,5.43742041015625,0.0929530089855194,0.004634674063324928,0.00648665860556066
1638754175114441500,5.44744140625,0.09846855753660201,-0.00021620003394782542,0.013345913383178412
1638754175124461300,5.45746142578125,0.10309563281536102,-0.002627498959377408,0.013536321388743817
1638754175134482400,5.467482421875,0.10068798715174197,0.003932955534756183,0.020662629604712126
1638754175144503300,5.47750341796875,0.10470365253388882,0.006652151365578174,0.021729601249098777
1638754175154523400,5.4875234375,0.1089782611131668,0.01584682682082057,0.02468238664008677
1638754175164544300,5.497544189453125,0.1174397999882698,0.01865479691363871,0.03212214471939951
1638754175174564400,5.507564453125,0.11749065339267253,0.020417641867697237,0.040805180858075614
1638754175184585200,5.517585205078125,0.10464227773547172,0.025957886468619108,0.02763962901048362
1638754175194605300,5.527605224609375,0.10629764372706413,0.0220193779759109,0.032526487736590205
1638754175204626400,5.53762646484375,0.11242343313097954,0.010898410633206367,0.02697824249230325
1638754175214647300,5.547647216796875,0.10164426496326923,0.021606778587028384,0.025689773584343493
1638754175224667400,5.55766748046875,0.09281330825388431,0.021991686251386998,0.04208426088318228
1638754175234688500,5.5676884765625,0.09116144939363002,0.023406229224428532,0.04078994675632566
1638754175244708400,5.577708251953125,0.0869575679630041,0.022972221721336245,0.055354624812118704
1638754175254729500,5.5877294921875,0.06701426560878754,0.022344810537993906,0.07951821174249052
1638754175264749600,5.59774951171875,0.09427402845621108,-0.016269143886119126,0.055528520074300466
1638754175274770400,5.6077705078125,0.1286678809672594,-0.06990699137561023,0.030460056726075706
1638754175284790500,5.61779052734375,0.15499065522551536,-0.08024469938613474,0.030290253117121753
1638754175294811400,5.627811279296875,0.11391513299345969,-0.013129969077557325,-0.03634575376380235
1638754175304832500,5.63783251953125,0.032063363736867904,0.0984063790205866,-0.047403446611948306
1638754175314852400,5.647852294921875,-0.003708791390061378,0.14571034731343388,-0.04161225945726037
1638754175324873500,5.65787353515625,0.02993161240518093,0.13668452561907468,-0.05033895207457244
1638754175334893600,5.6678935546875,0.07165770750045776,0.11616649211682378,-0.03686517452802509
1638754175344914400,5.67791455078125,0.09733692315816879,0.06978679906204342,-0.06219356745406985
1638754175354934500,5.6879345703125,0.11833236491382121,0.03653407941013574,-0.07855247198287398
1638754175364955400,5.697955322265625,0.10712824933230876,-0.025373802970349787,-0.08168949136696756
1638754175374976500,5.7079765625,0.1175619650632143,-0.0767427556797862,-0.0725105980027467
1638754175384996400,5.717996337890625,0.08805062389671801,-0.11341953149624168,-0.054727469357103105
1638754175395017500,5.728017578125,0.05356324788331985,-0.10329992321580647,-0.028547756831347942
1638754175405037300,5.738037353515625,0.040621348723769185,-0.06879588832855224,-0.0043960430018603796
1638754175415058400,5.748058349609375,0.06442834076881408,-0.01668495814539492,0.02197177597451955
1638754175425078300,5.758078369140625,0.10516133317351341,0.00443242948949337,0.014447335286438464
1638754175435099400,5.768099365234375,0.14897475593686102,0.02576652861498296,-0.011997896307706831
1638754175445119500,5.778119384765625,0.17749474797844886,0.06140059044547379,-0.039686953950487075
1638754175455140400,5.788140380859375,0.13807576078176498,0.0727348352126777,-0.05691102394126355
1638754175465161200,5.7981611328125,0.08098141616284847,0.04343392192646861,-0.03826678495425731
1638754175475181300,5.808181396484375,0.0453045381039381,0.003288593216612935,0.004831621407531202
1638754175485202400,5.818202392578125,0.06609422815442084,-0.039793227336555714,0.0007367167767137288
1638754175495222300,5.82822216796875,0.06784019503891468,-0.089951562147215,-0.049197088563069695
1638754175505243400,5.838243408203125,0.06473755284845828,-0.1358312697906047,-0.056792840921692546
1638754175515263200,5.84826318359375,0.06750584851801394,-0.13252148765549063,-0.03477949082776904
1638754175525284600,5.85828466796875,0.08991291063725948,-0.06840550077147782,-0.04811568653453141
1638754175535305500,5.868305419921875,0.08420505438446999,-0.06528619970716536,-0.02325323061980307
1638754175545325600,5.87832568359375,0.09737842421233653,-0.03859795313738286,-0.02871105763427913
1638754175555346400,5.888346435546875,0.09098492378294468,0.038949323858320714,-0.0319350611820817
1638754175565366500,5.898366455078125,0.05087094005942344,0.047858021979033945,-0.02846234357021749
1638754175575387400,5.908387451171875,0.07338906133770942,0.0531787786103785,-0.009459536936506628
1638754175585407500,5.918407470703125,0.08151859177947043,0.038179362399131056,-0.005831336501985788
1638754175595428400,5.928428466796875,0.08283376603126526,0.019005802308395502,-0.024056546359322965
1638754175605449500,5.938449462890625,0.055494508206844324,-0.002949789716303348,-0.0013519991308450698
1638754175615469600,5.948469482421875,0.05062427182197571,-0.0002797667894512415,-0.003083608696423471
1638754175625490400,5.958490478515625,0.05698796163499355,0.021109569654613733,-0.008824636566452682
1638754175635510500,5.968510498046875,0.09020283349454403,0.017211831563711165,-0.00785418409910053
1638754175645531400,5.978531494140625,0.1209077683597803,-0.012283362185582517,-0.012128829210996627
1638754175655551500,5.988551513671875,0.13412848446071146,-0.02346168573871255,-0.004573335797525942
1638754175665572400,5.998572265625,0.1309030926734209,-0.008940408433228731,-0.01562142056711018
1638754175675592400,6.008592529296875,0.10252923110425471,0.008817658836394548,0.011488266285136342
1638754175685613300,6.01861328125,0.08342588670551776,0.011601371270790695,0.030930925640836358
1638754175695634400,6.028634521484375,0.09215805921554565,0.030979367892444133,0.03368621569834649
1638754175705654300,6.038654296875,0.09685586164295673,0.024292364409193395,0.054006826932355756
1638754175715675400,6.04867529296875,0.10555530092716216,0.008352087151259183,0.06896072350144386
1638754175725695500,6.058695556640625,0.12875322116315363,-0.007668854127451777,0.08120821065604686
1638754175735716400,6.06871630859375,0.15373217959702015,-0.02138911724835634,0.09288593509867787
1638754175745736400,6.078736328125,0.20219547399282453,-0.055063934769853946,0.08600625858753919
1638754175755757300,6.08875732421875,0.2674631881952286,-0.09581965046301484,0.10037037256993353
1638754175765778200,6.098778076171875,0.31556174093186856,-0.1533046018347144,0.13630400186888872
1638754175775798300,6.10879833984375,0.36999943356215953,-0.19614662228263913,0.20578491331953555
1638754175785819400,6.1188193359375,0.3611982874691486,-0.09973587405867874,0.27371932598054405
1638754175795839200,6.128839111328125,0.22047464252710341,0.10076192917078733,0.2571656295320019
1638754175805860600,6.138860595703125,-0.08833762414455414,0.26240780450180173,0.2682530964639038
1638754175815880200,6.148880126953125,-0.421301166254282,0.24070918291285634,0.1675969657551497
1638754175825901600,6.158901611328125,-0.5536205554664134,0.2515166273269802,-0.031199732644855975
1638754175835922400,6.16892236328125,-0.2950105358123779,0.3098751466628164,-0.3251364652132615
1638754175845942500,6.178942626953125,0.10118541527986526,0.21570611295104025,-0.5838811440976336
1638754175855963400,6.18896337890625,0.3542348781973123,-0.05860219189859926,-0.6846518045641481
1638754175865983500,6.1989833984375,0.41298868046104903,-0.23615692643597722,-0.5750770388625562
1638754175876004400,6.20900439453125,0.3066670713365078,-0.2020479552809149,-0.43748102442175146
1638754175886024400,6.2190244140625,0.0892231748074293,-0.1145416673939675,-0.25004301111046223
1638754175896045600,6.229045654296875,-0.10909867262244224,-0.030176015620306133,0.04025085317725315
1638754175906065400,6.2390654296875,-0.1297527535945177,0.037889804868027566,0.2656640115524642
1638754175916086500,6.24908642578125,0.0030167174726724623,0.08854147615358234,0.3656952335622161
1638754175926107400,6.259107421875,0.18047931674718856,0.12133125446885823,0.346994551680237
1638754175936127500,6.26912744140625,0.28362463392317294,0.12024316697120666,0.27646093457257376
1638754175946148400,6.2791484375,0.24105156660974025,0.10113587704971432,0.1945398081405088
1638754175956168400,6.28916845703125,0.1256792205452919,0.04299932990148663,0.10865589729100465
1638754175966189300,6.299189208984375,0.03841653215587139,-0.0032012802593410013,-0.0035704788979142904
1638754175976209400,6.30920947265625,0.026293548163771628,-0.02972491085194051,-0.09225143658742307
1638754175986230300,6.319230224609375,0.06246785435080528,-0.05696896467357874,-0.11358875058330595
1638754175996251400,6.32925146484375,0.13417115455865858,-0.07662380547523498,-0.05980126549005508
1638754176006271500,6.339271484375,0.18883388811647892,-0.08487900812327862,-0.0034187954675406217
1638754176016292400,6.349292236328125,0.17896832766234874,-0.06918167277574538,0.04145031036119908
1638754176026312400,6.3593125,0.12943126655519008,-0.03365845090858638,0.07798141236295923
1638754176036333300,6.369333251953125,0.08280921611189841,-0.0003619651801884174,0.09471870348379015
1638754176046353400,6.379353515625,0.05272621253728866,0.013911255648359655,0.08622333540432155
1638754176056374300,6.389374267578125,0.04937631758749485,0.018418284744024276,0.05242757665058598
1638754176066395100,6.39939501953125,0.051989130434393876,0.02882620844654739,0.022959965027961878
1638754176076416000,6.409416015625,0.058497781676053996,0.028907456989213823,0.005549122027121484
1638754176086437000,6.41943701171875,0.08029460294246674,0.03693915307968855,0.015041282591596246
1638754176096457000,6.42945703125,0.09522738365828991,0.03241838771961629,0.02664433436281979
1638754176106478300,6.439478271484375,0.09765256497859955,0.026244302194565534,0.018426796844042838
1638754176116498200,6.449498291015625,0.09801906020343303,0.01700001544393599,0.01144194292537868
1638754176126519300,6.459519287109375,0.09795359375178814,0.006691460462659597,0.0010066014929674565
1638754176136539100,6.4695390625,0.08140636357665061,0.009513386015594006,0.005214775506220758
1638754176146560300,6.479560302734375,0.07158113513290881,0.016369973912090063,0.010554967490397393
1638754176156581000,6.4895810546875,0.07447861014008522,0.030104923145473,0.013323263159953056
1638754176166601200,6.499601318359375,0.08500468032956122,0.036903643374890084,-0.00036934476904571054
1638754176176622000,6.5096220703125,0.09641513213813305,0.040937209739908574,-0.00878088875627145
1638754176186642200,6.51964208984375,0.10182488222718238,0.03969517378956079,-0.015786584533564744
1638754176196663000,6.5296630859375,0.09751286424696445,0.033934856697171924,-0.018977197268418965
1638754176206683100,6.53968310546875,0.0919815336048603,0.021630817049741742,-0.023700262001249937
1638754176216704300,6.549704345703125,0.09707155022025107,0.013307882927730679,-0.018085399527847767
1638754176226725000,6.55972509765625,0.09617547816336154,0.010516790904477238,-0.0191677879370749
1638754176236745200,6.5697451171875,0.09334814578294753,-0.005343114593625069,-0.008690269597060978
1638754176246766000,6.57976611328125,0.1081809732556343,-0.0010490706615149973,-0.0002978321691043675
1638754176256786200,6.5897861328125,0.10761164893507957,-0.00000263034850358963,-0.006290679375734179
1638754176266807000,6.59980712890625,0.10090133764147757,0.008842501016706228,-0.007639153108932078
1638754176276827100,6.6098271484375,0.100473467618227,0.010826149114593862,-0.006283244987949728
1638754176286848000,6.619847900390625,0.09090484428405761,0.005246230090409517,-0.00817046524034813
1638754176296868000,6.6298681640625,0.09538754265606403,0.008838190167769789,-0.011705105639901011
1638754176306889000,6.639888916015625,0.09345511328876017,0.008212605615332722,-0.020827135984040797
1638754176316910000,6.64991015625,0.09540040213763713,0.004559782196208834,-0.030111206755787132
1638754176326930000,6.659929931640625,0.07760521772801876,0.008671966755390167,-0.020265848839469254
1638754176336951000,6.669950927734375,0.07026829896867275,0.0024511925444006917,-0.025812559713795778
1638754176346971100,6.67997119140625,0.09122399323582649,-0.008257248474657536,-0.02791033571064472
1638754176356992000,6.689991943359375,0.1026081415593624,-0.004941401924937963,-0.010334639270603655
1638754176367012000,6.70001220703125,0.09992050991058349,-0.006921177565306425,0.0025801892189309
1638754176377033200,6.710033203125,0.09678864162564277,-0.005994125848263501,0.007613050553295761
1638754176387054000,6.72005419921875,0.08900456362068652,0.00235072784461081,0.00585396845890209
1638754176397074200,6.73007421875,0.09423545001149176,-0.001365589264780283,0.019324330205656586
1638754176407095300,6.74009521484375,0.09183540313243865,0.003437573233246803,0.028751517508830874
1638754176417115100,6.750115234375,0.09946458283662796,0.009268325213342905,0.019269787006825207
1638754176427136300,6.76013623046875,0.09241700241267681,0.009346431950852274,0.023153295642975715
1638754176437156000,6.770156005859375,0.08881634757220745,0.015845511646568774,0.02748860316723585
1638754176447177200,6.78017724609375,0.08085983560979366,0.020308336274325847,0.019272070295456797
1638754176457198000,6.790197998046875,0.07875380324125289,0.02529956869035959,0.022141743980254976
1638754176467218200,6.80021826171875,0.09730360541045666,0.016996873638778925,0.013432349557615816
1638754176477239000,6.810239013671875,0.09730418993234634,0.016935498840361832,0.004526829774677753
1638754176487259100,6.820259033203125,0.09162205264270305,0.016505436860024928,0.0094397727901116
1638754176497280000,6.830280029296875,0.08968202449083328,0.02052249048165977,0.002883757009077817
1638754176507300000,6.840300048828125,0.0877507641673088,0.024150983177125454,0.00046113297203555703
1638754176517321200,6.8503212890625,0.09810381587743759,0.02225282140560448,-0.0031366357916034755
1638754176527341000,6.860341064453125,0.10336334384083748,0.017569412829726933,-0.00278946632174775
1638754176537362200,6.870362060546875,0.09904781872928142,0.020802768727764487,0.00635974429026246
1638754176547383000,6.880383056640625,0.09398585916459559,0.020381109249591828,0.00873463846175
1638754176557403100,6.890403076171875,0.0978852046906948,0.02111738763488829,0.002407353402674198
1638754176567424000,6.900424072265625,0.09804828629791736,0.02005589588321745,0.003565766190178692
1638754176577444000,6.910444091796875,0.09327391150295734,0.020698723831400274,0.0014756803094409406
1638754176587465000,6.92046484375,0.09972469507753848,0.018854338073730468,0.003515369443502277
1638754176597485000,6.930485107421875,0.09046469930112361,0.002950374238193035,0.001918656570278108
1638754176607506000,6.940505859375,0.09691139122247695,0.004571984090656042,-0.004944653327949345
1638754176617527000,6.950527099609375,0.09903028307259082,0.010126987869292498,-0.007431373843457549
1638754176627547100,6.960547119140625,0.09157061471641063,0.0030167174726724623,0.0013751973433420062
1638754176637568300,6.970568359375,0.09412380633056164,0.0026019991919398306,-0.0038994916565716266
1638754176647588000,6.980588134765625,0.08800444666743278,-0.0015095277801156044,-0.007919011229928583
1638754176657609200,6.990609130859375,0.08697393457591533,0.0051931116636842484,-0.004595054438989609
1638754176667629000,7.000629150390625,0.09656652330756187,0.003243000509217381,-0.0012695267454721033
1638754176677650200,7.010650146484375,0.09118483026921749,-0.002278100999817252,-0.00821448704516515
1638754176687671300,7.02067138671875,0.08355214343369007,0.006436462788283825,-0.003620345921628177
1638754176697691100,7.030691162109375,0.09388707496523857,0.005291530536860227,0.000762472272478044
1638754176707712300,7.040712158203125,0.09238426918685436,0.00655767801515758,0.005892419039458036
1638754176717732000,7.050732177734375,0.09492167870998382,0.007074468430876731,-0.004685874527599662
1638754176727753200,7.060753173828125,0.0998585505902767,0.006623948184400797,-0.010027199022937566
1638754176737773000,7.07077294921875,0.09673135848045349,0.006858779853582382,-0.00640524566611275
1638754176747794200,7.080794189453125,0.0962818611472845,0.012828721108660101,0.00906935030883178
1638754176757814300,7.090814208984375,0.09284019626080989,0.009350158277899026,0.005112484175525606
1638754176767835100,7.100835205078125,0.10091653521060943,0.008933759496733546,0.0008308430672623216
1638754176777856000,7.11085595703125,0.08430325406193732,0.006005304829403758,0.0024358853774145246
1638754176787876000,7.1208759765625,0.09343173241317272,0.017070961788296698,0.007820281829498708
1638754176797897200,7.130897216796875,0.09072422702014446,0.015553469897434115,0.012012107496149838
1638754176807917000,7.1409169921875,0.10075111551582813,0.0138859020113945,0.009922204278502612
1638754176817938200,7.150938232421875,0.0971662427663803,0.0140803286049515,0.004126030421443283
1638754176827958000,7.1609580078125,0.09417992043197154,0.01431735223121941,-0.002967069644667208
1638754176837979100,7.170979248046875,0.08758592899441718,0.0104024438098073,0.00574047988075763
1638754176848000000,7.181,0.09387947618067265,0.014770648956671356,0.004843512774724513
1638754176858020000,7.19102001953125,0.10600479826033114,0.020354586568847297,0.007788516718056053
1638754176868041000,7.201041015625,0.09868483063578605,0.019151494389399885,0.013453483677189796
1638754176878061000,7.21106103515625,0.08447685706317425,0.017266922751814125,0.0077296261376701295
1638754176888082000,7.22108203125,0.08522621412575244,0.005854059790447354,0.006148658822849392
1638754176898102000,7.23110205078125,0.10885843412578106,0.0013864128571003675,0.00928288346165791
1638754176908123100,7.241123046875,0.09731704941391944,-0.0019213234513998031,-0.00897436550175771
1638754176918143000,7.25114306640625,0.10792729075551033,-0.0015897534094750881,-0.0018657390729524194
1638754176928164000,7.2611640625,0.1083767880886793,0.003839797358587384,-0.0005770509692840278
1638754176938185200,7.271185302734375,0.1098801783889532,0.016847162969782947,-0.0002589431971311569
1638754176948205300,7.281205322265625,0.0947661958873272,0.014643442380428313,0.0021032376232556996
1638754176958226200,7.29122607421875,0.07874737350046634,0.022640067157521843,0.009381320601142943
1638754176968246300,7.301246337890625,0.08471768008172512,0.014668722952157258,0.010649568704981356
1638754176978267100,7.31126708984375,0.07632394574582577,0.019460633403807878,0.01118676258791238
1638754176988287200,7.321287353515625,0.08677402808964252,0.018799027689918875,0.013221172758657484
1638754176998308000,7.33130810546875,0.09662439097464084,0.017280293690040707,0.005909516304731369
1638754177008329200,7.3413291015625,0.08283435055315494,0.007085574346780777,0.0064809777834452685
1638754177018349000,7.35134912109375,0.10331249043643474,-0.005072992415353655,-0.004740399460121989
1638754177028370200,7.3613701171875,0.10822773500680923,0.00323313670232892,-0.006871968128718435
1638754177038390300,7.371390380859375,0.10895955641269683,0.004471592456102371,-0.015424601087067275
1638754177048411100,7.3814111328125,0.1119236669152975,0.0032611206877976653,-0.022022994705103337
1638754177058431200,7.39143115234375,0.10111001195609569,0.01049750168211758,-0.008715312706772237
1638754177068451800,7.401451904296875,0.08041969062685966,0.003960574194043874,0.015084409347269684
1638754177078472000,7.411471923828125,0.09487783956825732,-0.0032028876945376394,0.04423316427906975
1638754177088492800,7.421492919921875,0.10782558394670486,0.003357639864832163,0.07369867527615279
1638754177098514000,7.431513916015625,0.1141542024463415,-0.0028994477685540913,0.0785958362005651
1638754177108533800,7.44153369140625,0.12373685430586337,-0.018278145620971915,0.09326415729392319
1638754177118555000,7.451554931640625,0.1467401287525892,-0.017910554417595266,0.11317300938926636
1638754177128575000,7.461574951171875,0.1415729552477598,0.014838234300166368,0.1403571131845936
1638754177138595800,7.471595947265625,0.150862177118659,0.024697949535399673,0.1498474471181631
1638754177148616000,7.481615966796875,0.17162673272788523,0.03125438544154167,0.15220902515035123
1638754177158636800,7.49163671875,0.19641689059138298,0.03747515965253115,0.10879278501104563
1638754177168657700,7.50165771484375,0.16901099727153776,0.07130341417007148,0.006733655636571348
1638754177178677800,7.511677734375,0.11576572929620742,0.0881119256298989,-0.11963139174841343
1638754177188699000,7.521698974609375,0.04411445153653622,0.0972688994232565,-0.2300137109732255
1638754177198718700,7.53171875,-0.021685762107372282,0.06942527227327228,-0.2823953113239258
1638754177208739800,7.54173974609375,-0.03417524132430553,0.01606799529083073,-0.20385789077971128
1638754177218759700,7.551759765625,0.051365445578098294,0.004584112919867039,-0.04304210959728807
1638754177228781000,7.561781005859375,0.14390402854382991,0.007022592113167047,0.09852123757191002
1638754177238800600,7.571800537109375,0.19284604636728764,-0.01085427923053503,0.1868394994288683
1638754177248822000,7.581822021484375,0.18714286628961563,-0.06162468152493238,0.24822372326143086
1638754177258843000,7.5918427734375,0.12992518755197524,-0.12949914415962993,0.2336995233464986
1638754177268863000,7.601863037109375,0.055633624416589735,-0.13196180794611573,0.15633184070140121
1638754177278883800,7.6118837890625,0.03324175986647606,-0.08417202889770269,0.04298931996412575
1638754177288904000,7.621904052734375,0.09527180732190609,0.009652867551520465,-0.06781385502126068
1638754177298924800,7.6319248046875,0.13450433203577994,0.0665387570515275,-0.15041874420009552
1638754177308945000,7.64194482421875,0.09756430217325687,0.040635596444830294,-0.22807021222263574
1638754177318966000,7.651966064453125,0.001816109511256218,0.01942731565609574,-0.2497450876098126
1638754177328987000,7.66198681640625,-0.06166998197138309,0.030472149022668597,-0.22913404206186533
1638754177339007000,7.672007080078125,-0.08701602015197277,0.03896064896993339,-0.1746941209418699
1638754177349027800,7.68202783203125,-0.028604747715592384,0.021216317964717745,-0.10586867772527038
1638754177359048000,7.6920478515625,0.047315877926349635,-0.010573124201595783,-0.0693086601562798
1638754177369068800,7.70206884765625,0.11598200239539146,-0.007217091771960258,-0.08297405128479003
1638754177379089000,7.7120888671875,0.11932897473573684,0.0215292563714087,-0.0837319204473868
1638754177389109800,7.72210986328125,0.08347031036913394,0.044854383183643216,-0.09998765686266124
1638754177399131000,7.732130859375,0.04700198967158794,0.06517959752753377,-0.0887364142037928
1638754177409150700,7.742150634765625,0.004257072922587394,0.08325155305191874,-0.007960822811350226
1638754177419171800,7.752171875,-0.026685762351751324,0.03366276175752282,0.05716861543152481
1638754177429192000,7.76219189453125,0.04813362405002117,0.03830678817108273,0.03349920522626489
1638754177439212800,7.772212890625,0.13865736006200313,0.08821735876575112,-0.005556172822415828
1638754177449233000,7.78223291015625,0.13805413347184659,0.08365545767769217,-0.04319145494010299
1638754177459253800,7.792253662109375,0.12996961121559142,0.07297353933937847,-0.05619688432253897
1638754177469275000,7.80227490234375,0.1364098733961582,0.062242448097094887,-0.045709282979927955
1638754177479294700,7.812294677734375,0.10442191298305988,0.06731032594591378,-0.00236227215193212
1638754177489316000,7.822316162109375,0.06199029996693134,0.032654899889230725,0.023061799700930714
1638754177499335700,7.832335693359375,0.07248539049625397,-0.0008417845863848924,0.030257118032500144
1638754177509357000,7.842357177734375,0.11409224312603473,0.01789681815318763,0.037909605547040696
1638754177519376600,7.852376708984375,0.12697861270606517,0.04469239755496383,0.032327786826714874
1638754177529398000,7.86239794921875,0.10841712009906768,0.04610803650654852,0.02700071005243808
1638754177539417900,7.87241796875,0.09566635959744453,0.034390491510182614,0.021957126394659278
1638754177549439000,7.88243896484375,0.10624737484455107,0.01620017030313611,0.010409896463900803
1638754177559459800,7.8924599609375,0.1026566568762064,0.027147315448895096,-0.02543188983313739
1638754177569480000,7.90247998046875,0.08005027279257775,0.021513035888969897,-0.036684374601021405
1638754177579500800,7.912500732421875,0.06866320185959339,0.010812047524005174,-0.032081008991412814
1638754177589521000,7.92252099609375,0.0514262358546257,-0.020273776417598127,-0.003291990750096738
1638754177599542000,7.9325419921875,0.0765355426698923,-0.04913622522130608,0.030068646255694328
1638754177609561900,7.942561767578125,0.1342483114480972,-0.06243884745202958,0.0464292312849313
1638754177619583000,7.9525830078125,0.16188450639247892,-0.06537351266443729,0.02993446194939315
1638754177629603800,7.962603759765625,0.16588029803037643,-0.05539009798429906,0.016722404078952965
1638754177639624000,7.9726240234375,0.13217267421782017,-0.04351407449059188,0.00005721007995307445
1638754177649644800,7.982644775390625,0.08678162687420844,-0.04348367935232818,-0.01250946255903691
1638754177659665000,7.992664794921875,0.0711719698101282,-0.055986383377015586,-0.01718823149241507
1638754177669685800,8.002685791015624,0.05527589702010154,-0.038898178192973136,-0.03658409256432205
1638754177679705900,8.012705810546874,0.06511223137974739,-0.03863594706021249,-0.027203575680777428
1638754177689726700,8.022726806640625,0.06762509098351001,-0.044799145865067835,-0.0024121026430279015
1638754177699746800,8.032746826171875,0.08106441827118396,-0.03954217518493533,0.01589468455053866
1638754177709768000,8.042767822265626,0.09463234037458897,-0.02384695872925222,0.030849311771988866
1638754177719788800,8.052788818359375,0.1115057337641716,-0.005500570177659392,0.03747830145768821
1638754177729809000,8.062808837890625,0.10908815122842788,0.003758402685448527,0.02115154563281685
1638754177739829800,8.072829833984375,0.09872399360239505,0.01484466404095292,-0.00024095088271424174
1638754177749849900,8.082849853515626,0.08554477855563163,-0.004050006043165922,-0.02451057373713702
1638754177759870700,8.09287060546875,0.06802139682471751,-0.03793379014022648,-0.02830560037223622
1638754177769890800,8.102890869140625,0.06202537128031253,-0.05036715525574982,-0.04543099576150998
1638754177779911700,8.11291162109375,0.08042378228008747,-0.037301264390349385,-0.05112423896705731
1638754177789933000,8.12293310546875,0.11678805808126926,-0.046312180776521564,-0.023268336857389656
1638754177799953000,8.132952880859374,0.14899579872488974,-0.006127323773875832,0.008491093763150274
1638754177809974000,8.14297412109375,0.15115736067295074,0.09525259116478264,0.058756122084986415
1638754177819993900,8.152993896484375,0.18745032480359075,0.17572883428446948,0.10298331328099593
1638754177830015000,8.163014892578126,0.3006470803946256,0.13197364451438187,0.3046095908174291
1638754177840035000,8.17303515625,0.4048556428879499,0.016244813162460923,0.3449642879616469
1638754177850056000,8.183055908203125,0.33982524457275864,-0.18591171705946324,0.17695359030645338
1638754177860076000,8.193075927734375,0.08087620222270488,-0.4144464049886912,0.13856180899934842
1638754177870097000,8.203096923828125,-0.29652503202855585,-0.6312895591456442,-0.007818144671339542
1638754177880118000,8.213117919921874,-0.46405485083162784,-0.6968152666971087,-0.20339014540379866
1638754177890137900,8.223137939453125,-0.2118921076208353,-0.6818731336310505,-0.2727854609302245
1638754177900159000,8.233158935546875,0.24494039074182508,-0.5150759399514645,-0.1908641701013781
1638754177910178800,8.2431787109375,0.5290951860189438,-0.024147549111023545,-0.10336728936359285
1638754177920200000,8.253199951171876,0.5059802678912878,0.5261998299036175,-0.09261228752275928
1638754177930219800,8.2632197265625,0.22905717743337153,0.8335279224321246,-0.06749057788364589
1638754177940241000,8.273240966796875,-0.038078093981742854,0.8897560056105256,-0.0020609145851805807
1638754177950261800,8.28326171875,-0.16394085440039632,0.8346643791161477,-0.0039015922821126875
1638754177960281900,8.29328173828125,-0.19801964961290358,0.6866250043332577,0.014593849351350217
1638754177970302700,8.303302734375,-0.1202759001970291,0.43802134184353053,-0.01945674267997965
1638754177980322800,8.31332275390625,0.006442015746235847,0.12808847364410758,-0.03843803160162643
1638754177990344000,8.323343994140625,0.12356909652352333,-0.18383966002576052,0.06548880960717797
1638754178000363800,8.33336376953125,0.23635785583555696,-0.3628474429156631,0.2107094371749088
1638754178010385000,8.343385009765624,0.26215748300254343,-0.37789537444375454,0.30556455345470457
1638754178020405800,8.35340576171875,0.18296295025646686,-0.22410145472213625,0.4110379847846925
1638754178030425900,8.36342578125,0.09023147506713866,0.010127864652127026,0.5071539878457785
1638754178040446700,8.37344677734375,0.04012275155186653,0.16227555153667925,0.4787312456335872
1638754178050466800,8.383466796875,0.02797171050906181,0.22057605707496403,0.2954305513227358
1638754178060487400,8.3934873046875,0.004371639212965965,0.2536944828227162,0.05885415736567229
1638754178070507500,8.403507568359375,-0.005771569138765335,0.27863654331229626,-0.19248908615577964
1638754178080528400,8.4135283203125,0.000772153416275978,0.23957784079536795,-0.36741062264535573
1638754178090548500,8.423548583984376,0.09832651871740818,0.13456526844277977,-0.43183914607726037
1638754178100569600,8.433569580078125,0.1905067897647619,-0.0015535130523145198,-0.42426483836546536
1638754178110590500,8.443590576171875,0.23791911380290984,-0.12039558105394244,-0.4004106096452102
1638754178120610600,8.453610595703125,0.20693653104007242,-0.17988164311498403,-0.346118061106652
1638754178130631400,8.46363134765625,0.1123766713798046,-0.216097304225713,-0.247533402909711
1638754178140651500,8.473651611328124,0.048453942045569416,-0.21086071874648332,-0.13586529992436988
1638754178150672400,8.48367236328125,0.04522095147371292,-0.171814145058766,-0.026370558922737836
1638754178160692500,8.4936923828125,0.06749708068966866,-0.10463738236464559,0.02829588269582018
1638754178170713300,8.50371337890625,0.08980652765333652,-0.0331502091255039,0.035825017825327814
1638754178180734700,8.513734619140624,0.09630407297909259,0.03282587254196405,0.022563385192118583
1638754178190754600,8.523754638671875,0.09343290145695209,0.06103446054682135,-0.003055971770826727
1638754178200775700,8.533775634765625,0.0924696093827486,0.06374488854929805,-0.02863349888604134
1638754178210795500,8.54379541015625,0.09554594808816909,0.03561879119612276,-0.03335124812293797
1638754178220816600,8.553816650390624,0.09938976403474807,-0.005687544117122888,-0.036935079692769796
1638754178230836700,8.563836669921875,0.12124912914335727,-0.04161459754481912,-0.03588931523319334
1638754178240857600,8.573857666015625,0.127452659958601,-0.0702531013995409,-0.014511084705032408
1638754178250878500,8.58387841796875,0.13564882589578628,-0.09448445633649825,0.0026291246608830987
1638754178260898600,8.593898681640624,0.12563421235978603,-0.09759140937589109,0.03892616217844188
1638754178270919700,8.603919677734375,0.13462941972017287,-0.07659092611894011,0.08127345791198312
1638754178280939500,8.613939453125,0.12060089436769485,-0.05043342542499304,0.1196271174320951
1638754178290960600,8.623960693359376,0.10745499706864356,-0.008649024271219968,0.16506074354210867
1638754178300980500,8.63398046875,0.0992056396394968,0.022409473272040487,0.1865003854013048
1638754178311001600,8.644001708984375,0.10453180309832096,0.055796048436686396,0.21131220710733903
1638754178321021400,8.654021484375,0.09518179095089435,0.07772957476004957,0.19630488158427178
1638754178331042600,8.66404248046875,0.0647282004982233,0.07320800568237901,0.1662265176521614
1638754178341063400,8.6740634765625,0.06002163024246692,0.06522548249587416,0.13209195539811625
1638754178351083500,8.68408349609375,0.06401391474902629,0.04748473168723285,0.07538944137468934
1638754178361104400,8.6941044921875,0.07702011131644249,0.03377279800325632,0.02741097135376185
1638754178371124500,8.70412451171875,0.07780453969240188,0.024968729300796983,-0.007508494200278073
1638754178381145600,8.7141455078125,0.08836158954203129,0.0060604690827429294,-0.01741433186586946
1638754178391165400,8.72416552734375,0.07666998270452022,0.004299377694353461,-0.02746849196096882
1638754178401186600,8.7341865234375,0.07277531335353851,0.013556158600375056,-0.01891996892215684
1638754178411207400,8.74420751953125,0.07500877149403094,0.02724178879931569,0.009775525816809386
1638754178421227500,8.7542275390625,0.07003332116901874,0.04015234297253191,0.025267072926554827
1638754178431248400,8.764248291015624,0.06413900243341922,0.055817675746604796,0.04443409367864951
1638754178441268500,8.7742685546875,0.0646539662182331,0.05119549583867192,0.03300975947519764
1638754178451289600,8.78428955078125,0.08235562712550162,0.04941723411977291,0.012319529477506875
1638754178461309400,8.794309326171875,0.0977852514475584,0.04062295615896582,0.00008671016907319426
1638754178471330600,8.80433056640625,0.09974398429989814,0.02979118102118373,-0.015906137526314704
1638754178481350400,8.814350341796874,0.10636077209115027,0.01257657297849655,-0.026753018901683388
1638754178491371500,8.82437158203125,0.10056231494545936,-0.005507292179390787,-0.04232835357105359
1638754178501392600,8.834392578125,0.09985796606838702,-0.004816606501489878,-0.039865379257313906
1638754178511412700,8.844412841796874,0.1060679266244173,0.0017662790201604366,-0.038926527504622936
1638754178521433600,8.85443359375,0.1056798040896654,0.01149710717871785,-0.03680032913088798
1638754178531453700,8.86445361328125,0.10452128170430659,0.014556348618865012,-0.030771077170316127
1638754178541474600,8.874474609375,0.10680559324920177,0.017734759459272026,-0.026198490291461346
1638754178551494700,8.88449462890625,0.10503858357667922,0.018130407713353634,-0.024953933590464293
1638754178561515500,8.894515625,0.08812427365481854,0.023603870688378808,-0.029960546238720416
1638754178571536600,8.90453662109375,0.09273439779877662,0.022608356845006346,-0.029806634318642316
1638754178581556500,8.914556396484375,0.09211422007381916,0.015113982501626013,-0.045940424854680896
1638754178591577600,8.92457763671875,0.0950964507550001,0.004465747237205505,-0.056831930823065334
1638754178601597400,8.934597412109374,0.09133797500431537,0.0005496697720140219,-0.0630398090198636
1638754178611618600,8.94461865234375,0.09327332698106765,-0.006725070471316576,-0.055033484832663085
1638754178621638700,8.954638671875,0.09879647431671619,-0.00669708648584783,-0.06261338203502818
1638754178631659500,8.964659423828126,0.08936930527985096,-0.0028618191719055174,-0.05303220974653959
1638754178641679600,8.9746796875,0.09131284056305884,-0.011762407051399349,-0.0339174854372628
1638754178651700500,8.984700439453125,0.09849252293407916,-0.012067162151634692,-0.013158227057661861
1638754178661721300,8.994721435546875,0.09818798702955245,-0.011212298887968063,0.0018272336934693158
1638754178671741400,9.004741455078126,0.09189210175573825,-0.006988032256439328,0.01849480231264606
1638754178681762600,9.014762451171874,0.10324351685345172,-0.002703413739800453,0.027284531962499022
1638754178691782400,9.024782470703125,0.09154723384082317,0.0041335926733911035,0.0407520806976594
1638754178701803500,9.034803466796875,0.09438041144013404,0.008860621195286512,0.041743009697459636
1638754178711823400,9.0448232421875,0.0873322464942932,0.005374459579959512,0.04970096469828859
1638754178721844500,9.054844482421874,0.09675357031226157,0.013625716705247759,0.052121214115153996
1638754178731865600,9.064865478515625,0.08716507323384284,0.011850815987214445,0.04822944910731166
1638754178741885400,9.074885498046875,0.0883516526699066,0.013240005323290824,0.04273719010027125
1638754178751906600,9.084906494140625,0.08596972596943378,0.011423019029200076,0.04771163577828556
1638754178761926700,9.0949267578125,0.09554945521950721,0.013584142585843801,0.03470626119477674
1638754178771947500,9.104947509765625,0.0967524012684822,0.015721154614537953,0.042463140665553505
1638754178781967600,9.114967529296875,0.08823533281385898,0.024400427893549202,0.03853086098423227
1638754178791988700,9.12498876953125,0.08495674953460693,0.01676927542798221,0.03216269592549652
1638754178802009600,9.135009521484376,0.0864613088786602,0.0234114168561995,0.03722713970821351
1638754178812029700,9.14502978515625,0.0960726023107767,0.01829005525447428,0.03480699988920241
1638754178822050600,9.155050537109375,0.09683891050815582,0.033245778454467655,0.031224227765295653
1638754178832070700,9.165070556640625,0.08832184205353259,0.03361826502867043,0.014927611350361258
1638754178842091500,9.175091552734376,0.09207096545398234,0.020420710607618093,0.007348937990702688
1638754178852111600,9.185111572265624,0.09373100762069225,0.022144684856012464,-0.0024265147608704862
1638754178862132500,9.195132568359375,0.09659341131448745,0.01571662456989288,-0.00863897780124098
1638754178872152600,9.205152587890625,0.09779986449480056,0.017906828090548513,-0.007666168980021029
1638754178882173400,9.21517333984375,0.09827624983489512,0.016026786497607828,-0.015772537741903216
1638754178892194600,9.225194580078124,0.10039163455367088,0.014651260360702871,-0.014595785580109804
1638754178902214400,9.23521435546875,0.09458499410152435,0.009550357025116682,-0.033316889195609836
1638754178912235500,9.245235595703125,0.09027063803374767,0.009217837135121226,-0.026692721815500406
1638754178922255600,9.255255615234375,0.09343523954451084,0.009058774115890265,-0.023609113119076937
1638754178932276500,9.2652763671875,0.09659750296771526,0.009629632806405424,-0.027274722954537717
1638754178942296600,9.275296630859375,0.09466799620985984,0.011614742209017277,-0.027207612535078078
1638754178952317400,9.2853173828125,0.09288169731497764,0.014454641810059546,-0.029723102487344295
1638754178962338600,9.295338623046876,0.08659925604462623,0.0036695553582161665,-0.03426003353092819
1638754178972358400,9.3053583984375,0.08422083647549151,0.006163783326745033,-0.02207640539277345
1638754178982379500,9.315379638671875,0.09409574927985667,-0.00034998248144984243,-0.014052563815191387
1638754178992399400,9.3253994140625,0.09753332251310348,0.00294460208453238,-0.015689827894512565
1638754179002420500,9.33542041015625,0.10337211166918277,0.0012030191142112015,-0.010309669226128608
1638754179012440300,9.3454404296875,0.10053776502609252,-0.007957461810484527,-0.0058325238120742135
1638754179022461700,9.355461669921874,0.08408756548464298,-0.003050985068455338,0.0047286724897101515
1638754179032481500,9.3654814453125,0.09217267226278782,-0.006191182790324092,0.011816402260959149
1638754179042502700,9.375502685546875,0.09171966779828071,-0.0003757014445960521,0.013967406282387672
1638754179052523500,9.3855234375,0.09591653496623039,-0.001548909942433238,0.01117967525999993
1638754179062544100,9.395544189453124,0.08933189587891101,0.003129530197381973,0.021429778052307665
1638754179072565000,9.40556494140625,0.09426818323731422,0.007581833431124687,0.022191684069205075
1638754179082585000,9.415585205078125,0.09217091869711876,0.008076485080271959,0.015726451844163238
1638754179092606000,9.42560595703125,0.10053191980719565,0.013570698582381009,0.015352723160944878
1638754179102626000,9.4356259765625,0.10905424895882605,0.013259513741359114,0.014357812105771153
1638754179112647200,9.445647216796875,0.10336159027516842,0.01252148179039359,0.017481314421165732
1638754179122668300,9.455668212890625,0.09528115967214107,0.021397958141937852,0.013899327748548239
1638754179132688100,9.465688232421876,0.09602700960338115,0.009507394666224718,0.008851743769086897
1638754179142709200,9.475709228515624,0.09244447494149208,0.015836086231097578,0.009222001853585243
1638754179152729300,9.485729248046875,0.08945464547574519,0.01459960323870182,0.01848515770146623
1638754179162750200,9.495750244140625,0.10786474691331385,0.01739310641475022,0.008733907809387893
1638754179172770300,9.505770263671875,0.09231120395064353,0.013075973867997526,0.0120044356463477
1638754179182791200,9.515791259765624,0.09231003490686417,0.012385142059624194,0.015497684589587151
1638754179192812300,9.525812255859375,0.09321370574831962,0.008310439966619015,0.003390884547308087
1638754179202832100,9.53583203125,0.09516893146932125,0.014270736610516905,0.004949238171521574
1638754179212853200,9.545853271484376,0.10429507173299789,0.009351619582623243,0.0022654789802618322
1638754179222873000,9.555873046875,0.09337737187743186,0.00836596954613924,0.0004741385840810835
1638754179232894200,9.565894287109375,0.08920037845373154,0.011666253200545906,0.005576357093919068
1638754179242914300,9.575914306640625,0.09668225864171981,0.010386734784021972,-0.00782300350954756
1638754179252935200,9.58593505859375,0.08950783696770667,0.010426847598701714,-0.0035157713023014365
1638754179262955300,9.595955322265626,0.09221592688262462,0.010738324700668454,-0.008803173653315751
1638754179272976100,9.60597607421875,0.0860819541722536,0.014928250671178101,-0.0028843597972765564
1638754179282997200,9.615997314453125,0.08115618820786476,0.016560381917655468,0.0009715301795862614
1638754179293017000,9.62601708984375,0.08250701829493046,0.005878463579341769,0.0070791994049213824
1638754179303038200,9.6360380859375,0.09193535637557507,0.006764817959815263,-0.0044446679165586825
1638754179313058000,9.64605810546875,0.08685936828553677,0.006057400342822075,-0.0016408077432774006
1638754179323079200,9.6560791015625,0.09479308389425277,0.0025468349386006594,0.0008218925758264958
1638754179333099000,9.66609912109375,0.09659282679259777,0.004121171583235264,-0.001984890206903219
1638754179343120100,9.6761201171875,0.10256605598330497,0.003673062489554286,0.00797125287381932
1638754179353141000,9.68614111328125,0.10182605127096175,0.0034164573799818753,0.013468644713703543
1638754179363161000,9.6961611328125,0.09361118063330649,-0.0003564122222363949,0.004393357854429633
1638754179373182000,9.706181884765625,0.09165361682474613,0.010127937717363238,0.00039594051502645015
1638754179383202000,9.7162021484375,0.08447276540994644,0.0040504444345831865,-0.011702091698907315
1638754179393223200,9.72622314453125,0.08581775027811527,0.0034551819551736115,-0.0017551548379473388
1638754179403243000,9.736242919921875,0.08971300415098667,0.011793094450607895,-0.010964406807813793
1638754179413264400,9.746264404296875,0.08670563902854919,0.010187120558694005,-0.009078081604558974
1638754179423284000,9.756283935546875,0.0911976897507906,0.01439195183739066,-0.009406747303344308
1638754179433305300,9.766305419921874,0.09735562785863876,0.008892477638274431,-0.009003189737442881
1638754179443326200,9.776326171875,0.09870236629247665,0.010898483698442577,-0.004959101978410035
1638754179453346300,9.78634619140625,0.0892798734307289,0.007873582919314503,-0.008817969363648443
1638754179463367200,9.7963671875,0.0861433289706707,0.017449293581396342,0.005434208676870912
1638754179473387300,9.80638720703125,0.09766893159151077,0.008576616622135042,0.007198788930289447
1638754179483408100,9.816408203125,0.08868366110324859,0.009854235342517495,0.005919307046383619
1638754179493428200,9.82642822265625,0.08838321685194969,0.007642623707652092,0.013664697008766232
1638754179503449000,9.836448974609375,0.10678688854873179,0.010892711544781922,0.0243126400122419
1638754179513470200,9.84647021484375,0.10707973401546478,-0.00179499365799129,0.035268918312527237
1638754179523490300,9.856490234375,0.10856675770282745,0.0020215689554810524,0.034978210003953424
1638754179533511200,9.86651123046875,0.1042033017963171,-0.006098901396989822,0.05140007850006222
1638754179543531300,9.87653125,0.09175766172111034,-0.0058513563767075534,0.0782455249255523
1638754179553552100,9.88655224609375,0.11490648211836814,-0.021143691119924188,0.0959622190051712
1638754179563572200,9.896572265625,0.13443360488712786,-0.03779861945323646,0.1039640679466538
1638754179573593000,9.906593017578125,0.1512555603504181,-0.052471580189093946,0.0829617032598704
1638754179583613200,9.91661328125,0.148034844738245,-0.024153102068975568,0.0143267411140725
1638754179593634000,9.926634033203126,0.1304331370741129,0.01885711455270648,-0.025096776127256453
1638754179603655200,9.9366552734375,0.12000760464966297,0.0671585694503039,-0.04000992056084796
1638754179613675000,9.946675048828125,0.10671323879063128,0.1461216315280646,-0.026060415261331946
1638754179623696100,9.956696044921875,0.11224749204218387,0.19447854293994604,0.003156089410744607
1638754179633716200,9.96671630859375,0.10082885692715644,0.1970339995764196,0.03908151713693514
1638754179643737000,9.976737060546874,0.08786123880445956,0.15520853575989604,0.07736808450389653
1638754179653757200,9.986757080078124,0.07827683337926865,0.09344079250246286,0.12399979782467707
1638754179663778000,9.996778076171875,0.08046411429047584,0.021994974187016486,0.17773273971909656
1638754179673799200,10.006799072265625,0.09567454290390014,-0.038132089191302655,0.2010343029926531
1638754179683819000,10.016819091796876,0.12840075446367263,-0.035887159808725116,0.23176804382726549
1638754179693840400,10.02684033203125,0.1182066927075386,-0.026410598672181367,0.21660636799270286
1638754179703860000,10.03685986328125,0.10930208624005316,0.007932108173519373,0.1527841946898028
1638754179713881300,10.04688134765625,0.11095394510030746,0.06070486326627433,0.07116855401033535
1638754179723901200,10.056901123046876,0.10668050556480883,0.09162227183841168,-0.05291389886280522
1638754179733922300,10.06692236328125,0.07630991722047328,0.08756517846733332,-0.19543540527336298
1638754179743943200,10.076943115234375,0.027044658792018887,0.039589959849417204,-0.2775730422666296
1638754179753963300,10.08696337890625,0.011532032361626624,0.002371843697875738,-0.28811142394840716
1638754179763984100,10.096984130859376,0.10762158580720424,0.0125499041672796,-0.25344357680156826
1638754179774004200,10.107004150390624,0.20186872625648974,0.04202851210795343,-0.14884276358764617
1638754179784025000,10.117025146484375,0.22077684034407138,0.10733341651558875,-0.04802771599013358
1638754179794045200,10.127045166015625,0.24344693731367587,0.21813012522757053,0.06518653872497379
1638754179804066300,10.13706640625,0.27354163132607934,0.21712598968632518,0.13149893967472015
1638754179814086100,10.147086181640624,0.29247897150814534,0.15649806411378084,0.21878128261268137
1638754179824107300,10.157107177734375,0.3105500502496958,0.10776325930021703,0.270904451222904
1638754179834128100,10.167128173828125,0.22882570676505565,-0.03507715860009193,0.14901556287128478
1638754179844148200,10.177148193359375,0.04614508058130741,-0.11159867274463176,-0.000960442529991269
1638754179854169000,10.187169189453124,-0.08381693184971808,-0.06303147958293556,-0.09786978792585432
1638754179864189200,10.197189208984375,-0.1804997750133276,-0.0399882384520024,-0.1825440672572702
1638754179874210000,10.2072099609375,-0.2089718362599611,-0.07414360603205859,-0.2074932881399989
1638754179884230100,10.217230224609375,-0.14179273547828197,-0.1706672400459647,-0.2038848883844912
1638754179894251000,10.2272509765625,-0.013202595922350882,-0.236628197209537,-0.19298187464140354
1638754179904272100,10.237272216796875,0.06931026759147643,-0.21052323042042553,-0.2649018863398582
1638754179914292200,10.247292236328125,0.0878513019323349,-0.19376089618988335,-0.3229720537209883
1638754179924313000,10.25731298828125,0.05016074596345425,-0.1995475898325443,-0.33490864829551426
1638754179934333200,10.267333251953126,0.01750000085532665,-0.12490166030153631,-0.34456688614189623
1638754179944354000,10.27735400390625,-0.018271569749712942,-0.03203866768702864,-0.2812995519764721
1638754179954374100,10.2873740234375,-0.019277531921863555,0.031160715808719396,-0.16372812496516853
1638754179964395000,10.29739501953125,-0.006267243701219559,0.030636984195560216,-0.0792703013960272
1638754179974416100,10.307416015625,0.026451953595876692,0.013291516314819455,-0.03511515252292156
1638754179984436200,10.317436279296874,0.07009820309877396,0.04773782966546714,-0.005634389157779514
1638754179994457300,10.327457275390625,0.06465162813067436,-0.0180430947560817,0.042302799004688856
1638754180004477200,10.337477294921875,0.09594166940748691,-0.07071428917050361,0.15689108201935886
1638754180014498300,10.347498291015626,0.17459435036182402,-0.06208126618601381,0.17028945624213665
1638754180024518100,10.35751806640625,0.25285014095306396,-0.0852846663147211,0.10215528322532773
1638754180034539300,10.367539306640625,0.23357027094364166,-0.09460632915049791,0.055794367936253544
1638754180044559400,10.377559326171875,0.13333996443152427,-0.1015779217287898,0.04286605891063809
1638754180054580200,10.387580322265626,0.009374562066793442,-0.11686506884023547,0.0776601993182674
1638754180064600800,10.397600830078124,-0.0458972433000803,-0.062176324058324094,0.14097389337606728
1638754180074621000,10.407620849609375,0.016117022064328194,0.0067775313109159465,0.09174721339233219
1638754180084642000,10.41764208984375,0.11667933700978755,0.030812706088647245,-0.010948423787392676
1638754180094662000,10.427661865234375,0.16660335160791873,-0.0004779197100549936,-0.04486673120856285
1638754180104683000,10.43768310546875,0.1445966869831085,-0.024514628857746718,-0.04237593730613589
1638754180114702800,10.447702880859374,0.0928355200856924,0.004288052582740783,-0.03290207958333194
1638754180124724000,10.457723876953125,0.05980418809950351,0.05194054205231368,-0.0767535693347454
1638754180134744800,10.467744873046875,0.03202244720458984,0.03790617148093879,-0.09298344065640121
1638754180144765000,10.477764892578126,0.014233692535758017,-0.03813749601878225,-0.02943867778908461
1638754180154786000,10.4877861328125,0.03061082684099674,-0.0820171889513731,0.09131536131370813
1638754180164806000,10.497805908203125,0.07232815410792827,-0.03688333123922348,0.17166878177132455
1638754180174827000,10.507826904296875,0.1445055015683174,-0.007894260381162166,0.16685809355396777
1638754180184846800,10.517846923828126,0.22643618128001688,-0.04554704162292182,0.12202025964632629
1638754180194868000,10.527867919921874,0.28238953917026516,-0.08524491882622241,0.1261280968239531
1638754180204888000,10.53788818359375,0.23006197056174277,-0.06833579653613268,0.089511417164281
1638754180214909200,10.5479091796875,0.1505143865942955,0.05698233561180532,0.049022681844234466
1638754180224930000,10.557929931640626,0.1108650977730751,0.19289660751074553,0.018756028798408805
1638754180234950100,10.5679501953125,0.1750754118770361,0.3667718498177826,-0.04667410942409187
1638754180244971000,10.577970947265625,0.24600363605916498,0.536286266566813,-0.052017297082953155
1638754180254991000,10.5879912109375,0.17421441113352776,0.5160556717038154,0.031612368566356595
1638754180265012000,10.598011962890626,-0.042843116426467896,0.2467975629158318,-0.04302464700583368
1638754180275032000,10.608031982421876,-0.2612181563258171,-0.08341792259477078,-0.03330423064343631
1638754180285053000,10.618052978515625,-0.3827338274508714,-0.5963263823140412,0.09746825792025775
1638754180295074000,10.628073974609375,-0.39952538777589797,-1.2564336012735962,0.09960234733950346
1638754180305094000,10.638093994140625,-0.19817863956689832,-1.5903499140635131,0.04363612996768206
1638754180315115000,10.648114990234374,0.38464287594258784,-1.2128859898395836,0.2456197513081133
1638754180325135000,10.658135009765624,1.0714005667448043,-0.492588140746206,0.5441793213715777
1638754180335156000,10.668156005859375,1.3428373347461222,0.141907813225314,0.4501297127883881
1638754180345176000,10.678176025390625,0.9630354690939188,0.5628137696169316,0.1510660291276872
1638754180355197000,10.688197021484376,0.23174013290703296,0.7411798936024308,-0.07810607992224394
1638754180365218000,10.698218017578125,-0.2493962011069059,0.8255307861983776,-0.13480466668922453
1638754180375238000,10.70823779296875,-0.08070318374335765,0.6405743240371347,-0.05572893801722675
1638754180385259000,10.718259033203125,0.730095897269249,0.32844189996682105,0.2800087449809536
1638754180395278800,10.72827880859375,1.2554349456250666,0.2256646123856306,0.565327944394946
1638754180405300000,10.738300048828124,0.9817781634867191,-0.10707440025322139,0.7432522428970784
1638754180415319800,10.74831982421875,0.12188859609067439,-0.6396092053320258,0.7132783257201314
1638754180425341000,10.7583408203125,-1.1784428913593292,-1.018143243005499,0.19974749631881714
1638754180435361000,10.768361083984376,-2.3014894741892813,-0.591442774990946,-1.2561921937331557
1638754180445382000,10.7783818359375,-2.1209581349939106,0.7909862731702625,-2.516533031578362
1638754180455403000,10.788403076171875,-1.0656628998756408,1.4603355869233607,-2.498457568922639
1638754180465423000,10.798423095703125,0.34066227991878983,1.1378049568269402,-1.0799923809360712
1638754180475444000,10.80844384765625,1.2596078473955392,0.4919716893482953,0.48050881323274225
1638754180485464000,10.818464111328124,1.3961182585567236,0.12286803558208048,0.913760712184757
1638754180495485200,10.828485107421875,0.8773001364022492,0.02521152508072555,0.6496602784208954
1638754180505505000,10.838505126953125,0.027945407024025915,0.03002309008091688,0.3890248904190957
1638754180515526100,10.848526123046875,-0.6386643987625837,0.12976093690097332,0.028808343996293843
1638754180525547000,10.858547119140624,-0.8821183503389358,0.3742632284864783,-0.26681637819167225
1638754180535567000,10.868567138671875,-0.6707388684153557,0.4250329731937498,-0.1386551315722987
1638754180545588000,10.878587890625,-0.09369535178542136,0.15108772950284183,0.21365780211910604
1638754180555608000,10.888608154296875,0.6212672737598419,-0.11969846563525498,0.37461598744690416
1638754180565629000,10.89862890625,1.0890735860794782,-0.16454605375193057,0.3404451665693894
1638754180575649000,10.90864892578125,1.0400795458078385,-0.12633381199650465,0.18230664177220313
1638754180585670000,10.918669921875,0.4891945527851581,-0.08458820848315954,0.03195223151259124
1638754180595690000,10.92868994140625,-0.1331605162113905,0.04225084962174296,-0.055504152818024156
1638754180605711000,10.938711181640626,-0.4637240114420652,0.15414755546487868,-0.11057499225270002
1638754180615732000,10.94873193359375,-0.4269733666718006,0.17919541441649198,-0.09122830408476293
1638754180625752000,10.958751953125,-0.16063479859232901,0.14339534836933016,-0.09733326989635825
1638754180635773000,10.96877294921875,0.08151976082324981,0.0634334114473313,-0.10720591767840086
1638754180645793000,10.97879296875,0.18979601114690303,-0.006303264862671494,-0.12819701205249875
1638754180655814000,10.98881396484375,0.19059212996065616,-0.08733794558271765,-0.16825060735829173
1638754180665834000,10.998833984375,0.1307160456687212,-0.1550057066641748,-0.22684235092811286
1638754180675854800,11.008854736328125,0.12142857736349105,-0.23726021150276064,-0.31915954622812565
1638754180685876000,11.0188759765625,0.26992402535080906,-0.279631472633779,-0.30575474226456134
1638754180695895800,11.028895751953126,0.38794133296608924,-0.2738455827087164,-0.2723169118367135
1638754180705917000,11.0389169921875,0.2794546547621488,-0.26159984911978246,-0.2602346982464194
1638754180715937000,11.04893701171875,-0.03261749048829078,-0.2741490226346999,-0.07948774353899062
1638754180725958100,11.058958251953126,-0.319253581187129,-0.22489392027407884,0.20221987778171896
1638754180735978000,11.06897802734375,-0.2809644748032093,-0.0026908465191721916,0.4538433630166575
1638754180745999000,11.0789990234375,0.083158760201931,0.2279463666472584,0.5857786482820287
1638754180756020000,11.08902001953125,0.3884948751956224,0.2230621748022735,0.5905134582515805
1638754180766040000,11.0990400390625,0.45516427288949485,0.11447525109425187,0.5483872579228133
1638754180776061200,11.109061279296874,0.33030104490220547,-0.015422098602727054,0.38201884758193044
1638754180786081000,11.1190810546875,0.18696224902570246,-0.12536511309482157,0.1619666317179799
1638754180796102100,11.12910205078125,0.13794073622524738,-0.14629260418079792,0.03284563668835908
1638754180806122000,11.1391220703125,0.17857611347436902,-0.11698190015293657,-0.10291267746388912
1638754180816143000,11.14914306640625,0.263424726459384,-0.13388269300609826,-0.14413513388596474
1638754180826163000,11.159162841796874,0.326806773045659,-0.0729581956397742,-0.08441164633985608
1638754180836184000,11.16918408203125,0.2876613420933485,-0.029392390961945056,-0.07155103225558995
1638754180846205000,11.179204833984375,0.16820961776077747,-0.029362288084626195,-0.028996523512154815
1638754180856225000,11.18922509765625,0.015508534777164459,0.0224055277492851,0.017545301301777363
1638754180866246000,11.199245849609374,-0.1295867493778467,0.10202639614865183,-0.014070866656862198
1638754180876266000,11.209265869140625,-0.23480478117465972,0.20520641931183636,-0.07943272541612387
1638754180886286800,11.219286865234375,-0.26211305933892726,0.26975824032984674,-0.1764304066825658
1638754180896307000,11.229306884765625,-0.2390232756525278,0.2163221259575337,-0.21670177292488513
1638754180906328000,11.239328125,-0.14802666143178939,0.09935841904841362,-0.224886358022131
1638754180916349000,11.249348876953125,0.004843932899832725,0.05402860037274659,-0.26583533126506953
1638754180926369000,11.259369140625,0.12364683793485164,0.07318243284970521,-0.31412060221284627
1638754180936390000,11.269389892578126,0.1699684441268444,0.10026808123923837,-0.32754374555069954
1638754180946410000,11.279409912109376,0.1567752005547285,0.12196918704621493,-0.2882630708461627
1638754180956430800,11.289430908203125,0.15215513953864573,0.12360489848926663,-0.20377795741129665
1638754180966451000,11.299450927734375,0.14377075755298138,0.12710560008659957,-0.10456464592199773
1638754180976471800,11.309471923828125,0.14382511808872223,0.12426197415851056,0.03436444375347346
1638754180986493200,11.3194931640625,0.14376257424652575,0.12229593478254973,0.13540427655018866
1638754180996512800,11.3295126953125,0.15752397309541702,0.11795184116363525,0.1882633216869086
1638754181006534100,11.3395341796875,0.151507489284873,0.10625709252096711,0.2154404842847958
1638754181016554000,11.349553955078125,0.12751812641024587,0.10434059137515724,0.1847461804114282
1638754181026575000,11.3595751953125,0.1007043537646532,0.11468385234363376,0.12944661025479434
1638754181036595200,11.36959521484375,0.0914192235469818,0.10587561892271041,0.08235628471262753
1638754181046616000,11.379615966796875,0.1038543422281742,0.08016725023575126,0.03700710374936461
1638754181056636200,11.38963623046875,0.13832885875999926,0.05498517044521868,0.01575063643734902
1638754181066657000,11.399656982421876,0.16149112316071987,0.01721672693453729,-0.0032668197762221094
1638754181076678100,11.40967822265625,0.16102292112708091,-0.00842266816943884,-0.01112235558219254
1638754181086698000,11.419697998046875,0.13301730834841727,-0.021972177833318708,-0.010882336281239986
1638754181096719000,11.429718994140625,0.10546353099048138,-0.029910569617152213,0.0022914354054257274
1638754181106739000,11.439739013671876,0.09659224227070808,-0.029092312036827207,0.005000767429359257
1638754181116760000,11.449760009765624,0.10522621510326861,-0.011122136386483907,0.011037892169132828
1638754181126780200,11.4597802734375,0.08521744629740714,0.003770823775604367,0.00895330444741994
1638754181136801000,11.469801025390625,0.08417699733376502,0.015002704146876931,0.004410363788157701
1638754181146822100,11.479822265625,0.07919920892119407,0.021473872922360897,-0.024314028251729906
1638754181156842200,11.48984228515625,0.08197685694098472,0.033649683080241084,-0.03756119396816939
1638754181166863000,11.499863037109375,0.08655483238101006,0.033620676181465387,-0.05243110204823315
1638754181176883200,11.50988330078125,0.07302958037555217,0.02534669576771557,-0.06732395261246711
1638754181186904000,11.519904052734375,0.06461363420784473,0.02651939280889928,-0.07586129667013883
1638754181196924200,11.529924072265626,0.05621931535005569,0.023485505005717278,-0.0683270652404055
1638754181206945300,11.5399453125,0.06311141295135021,0.017559110631421206,-0.05747220148798078
1638754181216966100,11.549966064453125,0.07406359959840775,0.010206482846289873,-0.04190726034846157
1638754181226986200,11.559986328125,0.07829261547029018,-0.0004268471099436283,-0.013208733402192592
1638754181237007000,11.570007080078126,0.07638356697857379,-0.0021886691506952044,0.005762582114711403
1638754181247027200,11.580027099609374,0.09064473204314707,0.004084858160838484,0.022919322490319607
1638754181257048000,11.590048095703125,0.08843114764690399,0.004581774832308292,0.029292876110225914
1638754181267068200,11.600068115234375,0.09983867684602737,0.014430822543054818,0.04078340741768479
1638754181277089000,11.610089111328126,0.11197627388536929,0.008043386528268456,0.04291643739100545
1638754181287109000,11.620109130859374,0.11932605212628841,0.011061053849011659,0.04551036287434399
1638754181297130000,11.6301298828125,0.1075228016078472,0.024254370486363766,0.04255465487390756
1638754181307151000,11.640151123046875,0.0907575447678566,0.03339337023161351,0.025198738664388654
1638754181317171200,11.650171142578126,0.09838847803771496,0.031245471482723948,0.023963461248390376
1638754181327192000,11.660192138671874,0.10961597449481486,0.03968143752515316,0.01698686370141804
1638754181337212200,11.670212158203125,0.11889584401547908,0.04415726776495576,0.007824263884872198
1638754181347233000,11.68023291015625,0.11352116523981094,0.04778941372223198,0.005757869406975805
1638754181357253000,11.690253173828125,0.09946925901174544,0.05178147903308272,-0.0051641047649085515
1638754181367274000,11.70027392578125,0.06925064635872841,0.053487917624786496,-0.008803557245805858
1638754181377295000,11.710295166015625,0.06613222207725047,0.053724356729164716,-0.025059147530607877
1638754181387315000,11.72031494140625,0.07664134113192558,0.06173325646594166,-0.028877427177131175
1638754181397336000,11.730336181640626,0.08189560839831829,0.05827719772793352,-0.03861052035801112
1638754181407356000,11.74035595703125,0.08611351835429668,0.05764416052140295,-0.032744989325478674
1638754181417377300,11.750377197265625,0.08838263233006,0.05023666074387729,-0.027898535674996672
1638754181427397000,11.760397216796875,0.07435586054325104,0.035061376509070395,-0.034713184125907716
1638754181437418200,11.770418212890625,0.07529343365430831,0.040427506652101874,-0.029196868389844893
1638754181447439000,11.780439208984374,0.08984452157616615,0.03690115915685892,-0.019878018565662205
1638754181457459200,11.790459228515624,0.10049275684058666,0.02824117510020733,-0.02089453866444528
1638754181467480000,11.80047998046875,0.07793722616136074,0.02638940975368023,-0.01652136508151889
1638754181477500200,11.810500244140625,0.07840718176066876,0.025339973765984177,-0.008733779945224522
1638754181487521300,11.820521240234376,0.09235095143914222,0.03420651324540377,-0.011083375278674066
1638754181497541000,11.830541015625,0.09926292278468608,0.0284280029091984,-0.01154839897453785
1638754181507562200,11.840562255859375,0.1003255835801363,0.021942659477889537,-0.013821348875202238
1638754181517582000,11.85058203125,0.103192663449049,0.012760697373747824,-0.008562259303219615
1638754181527603200,11.860603271484376,0.08871522528529166,0.015595044016838073,0.001623765276931226
1638754181537624000,11.8706240234375,0.0894850406140089,0.008470452833920717,-0.010773067220486699
1638754181547644200,11.88064404296875,0.09203297153115272,0.006145663148164749,-0.006837042945809662
1638754181557665000,11.8906650390625,0.10057692799270153,0.004693345448002219,-0.01182736204639077
1638754181567685000,11.90068505859375,0.1056757124364376,0.0011959317862987517,-0.002313683769851923
1638754181577706000,11.9107060546875,0.10120587354600429,0.0043066111527383325,0.0029009821385145187
1638754181587726000,11.92072607421875,0.09402852926254272,0.010715601412206888,-0.004244323038868606
1638754181597747200,11.930747314453125,0.0914846899986267,0.0169886172670871,-0.002119659035094082
1638754181607768000,11.94076806640625,0.08879939643740653,0.01310103524401784,0.0058654944999143475
1638754181617788200,11.9507880859375,0.09808160404562949,0.015282178675383328,-0.0007297755792737006
1638754181627809000,11.96080908203125,0.09374386710226536,0.016982041395828127,-0.0026803251251578328
1638754181637829000,11.9708291015625,0.09957505747377872,0.011797186103835702,-0.006097476624883711
1638754181647850000,11.98085009765625,0.09432195925116539,0.020724515859782695,-0.0054159606341272586
1638754181657870000,11.9908701171875,0.09731763393580913,0.030714068019762633,-0.004228431349992752
1638754181667891000,12.000890869140624,0.09747194771468638,0.02538278999440372,-0.010013736753165721
1638754181677912300,12.010912353515625,0.10645195750594139,0.02953837530389428,-0.009997224009782075
1638754181687932000,12.020931884765625,0.0922428148895502,0.03007124007157981,-0.0037497079223394393
1638754181697953300,12.030953369140626,0.08371288695335388,0.029617797215655443,-0.0028261633366346356
1638754181707973000,12.04097314453125,0.08850830453634262,0.03882920460999012,-0.007683394109457731
1638754181717994200,12.050994140625,0.0955412719130516,0.02545497844778001,-0.0032226153083145617
1638754181728014300,12.061014404296875,0.09345978946387767,0.032125103861466046,-0.004079378268122673
1638754181738035200,12.07103515625,0.08973872311413288,0.034460999463126064,-0.00019921236652880906
1638754181748055300,12.08105517578125,0.0903477949231863,0.028720921441167592,0.002448635261133313
1638754181758076200,12.091076171875,0.08496434831917285,0.02755538479313254,-0.0013097674243152141
1638754181768097300,12.10109716796875,0.09276303937137126,0.027135332750156522,-0.0011214052453637122
1638754181778117000,12.1111171875,0.09785948572754859,0.03677789810337126,-0.0015138386290520429
1638754181788138200,12.12113818359375,0.09128829064369201,0.03532156181521714,0.0031315394913777705
1638754181798158000,12.131157958984375,0.09577975684404373,0.028670798689126968,-0.0017412541767582296
1638754181808179200,12.14117919921875,0.09773965874016284,0.02514035954065621,-0.009753441849164664
1638754181818199000,12.151198974609375,0.09058218820095061,0.028910014272481202,-0.006193411280028521
1638754181828220200,12.16122021484375,0.08519231185615062,0.025323168761655687,0.002259286701492965
