time,seconds_elapsed,z,y,x
1639509996139874600,0.06087451171875,-0.7264958269506693,-0.35041795025765893,-0.6840709359362721
1639509996149895400,0.0708955078125,-1.0632885719597338,-0.24617022479772566,-0.3275719121992588
1639509996159915500,0.08091552734375,-1.7551058842390774,0.008185644543170929,-0.3030959348514676
1639509996169935400,0.090935302734375,-2.1114304281920195,0.4772749824106693,-0.3638639995470643
1639509996179956500,0.10095654296875,-1.465958102980256,0.762587715551257,0.17362024463266132
1639509996189976600,0.1109765625,-0.15371815107166767,0.7052969715774059,0.7790878917142748
1639509996199996400,0.120996337890625,1.8440461504518986,0.6910223625093698,1.412572257490456
1639509996210017500,0.131017578125,2.8219243838906287,0.804492674344778,1.967825674855709
1639509996220037400,0.141037353515625,1.863780778491497,0.6797054342031479,2.1183400614500045
1639509996230057500,0.151057373046875,0.8019722159564494,0.7470949628651141,1.0673872394502162
1639509996240078300,0.161078369140625,0.4516068726688623,1.4453969609886408,0.3832908768117428
1639509996250098400,0.171098388671875,-0.149659231069684,1.6283903063833713,1.061831943410635
1639509996260118500,0.181118408203125,-0.37333062381148335,0.9386082993239164,0.3923685017585754
1639509996270139400,0.191139404296875,-0.15289982042610645,-0.2942231848269701,-0.7895148854434489
1639509996280159500,0.201159423828125,-0.3362199135571718,-1.532965938848257,-1.2020552376151084
1639509996290180400,0.211180419921875,-0.13672083904147148,-1.9546558121591806,-1.2860177154153585
1639509996300200400,0.221200439453125,-0.08980185147821902,-1.624336062556505,-1.4194646473526953
1639509996310220500,0.231220458984375,-0.6189397075951099,-1.1434972501844167,-0.8511416127949952
1639509996320241400,0.241241455078125,-0.9511264201134443,-0.5818658222198486,-0.31510230672657485
1639509996330261500,0.251261474609375,-0.5636228940427302,0.11520575732588767,-0.17732991280555724
1639509996340281600,0.261281494140625,0.3526508238762617,0.7873281890541315,0.26340134558379646
1639509996350302500,0.271302490234375,1.0629068791657685,1.1495347767829895,0.8871697885096073
1639509996360322600,0.281322509765625,1.052900448936224,0.6125485452532768,1.4108125543415546
1639509996370342400,0.29134228515625,0.23602877001166342,0.27356325863599773,0.8017676332950592
1639509996380363500,0.301363525390625,-0.6568243248313665,0.6173848793685436,0.11014379776120185
1639509996390383400,0.31138330078125,-1.0400853910267351,0.7456886031985283,0.21014672525823114
1639509996400403500,0.321403564453125,-0.6595429361402988,0.49311084944605826,0.18400807539522646
1639509996410424600,0.331424560546875,-0.04851473232209682,0.23298633357584475,-0.06593640724420548
1639509996420444400,0.3414443359375,0.5692489172309637,0.23208090916872023,-0.34711014088392256
1639509996430464500,0.351464599609375,1.026234560328722,0.3263818256318569,-0.2651952432632446
1639509996440485400,0.3614853515625,0.6366647493779659,-0.39271921489238737,0.7507248438000679
1639509996450505500,0.37150537109375,-0.0853676684230566,-0.24739888980984687,0.4749906708657741
1639509996460525600,0.381525634765625,-0.21019991675019262,0.009512509232759475,0.4937713591814041
1639509996470546400,0.39154638671875,-0.6490665503114461,-0.2895329811841249,0.18409984533190726
1639509996480566500,0.40156640625,-0.8456400927692651,-0.4951987616360187,-0.019701310291886327
1639509996490587400,0.41158740234375,-0.7621358801305294,-0.44343174951970576,-0.14093173473477363
1639509996500607500,0.421607421875,-0.13026684059649704,-0.28184125763773915,-0.37926176742613316
1639509996510627600,0.431627685546875,0.6877820654138922,-0.28038404456675053,-0.7624620433449745
1639509996520648400,0.4416484375,0.6839186679840088,-0.24627543873786925,-0.8106441827118396
1639509996530668500,0.45166845703125,-0.014565408708155154,-0.3226549140632152,-0.6670195556312799
1639509996540688600,0.461688720703125,-0.6158645379334687,-0.43466567474007606,-0.04751695345640182
1639509996550709500,0.47170947265625,-1.2140008192136884,-0.21115385647416113,0.36834815922379494
1639509996560729600,0.4817294921875,-1.2878490224957466,0.30264789882302284,0.5716805282920598
1639509996570749400,0.49174951171875,-1.1391899083793162,0.4254658847182989,0.41903555940985676
1639509996580770600,0.5017705078125,-1.1182637324675917,-0.1322235276222229,0.11126549526751041
1639509996590790400,0.511790283203125,-0.8956833498328923,-0.39451311257183547,-0.2881225298643112
1639509996600810500,0.521810546875,-0.4552840998768806,-0.3870177883803844,-0.8823246865659952
1639509996610831600,0.53183154296875,0.634262364411354,-0.4057967231303453,-0.7692915971040726
1639509996620851500,0.5418515625,1.2891203576058148,-0.1597767204582691,-0.1876753657311201
1639509996630871600,0.55187158203125,1.0663304238736628,-0.05219605118334293,-0.0457446830868721
1639509996640892400,0.561892333984375,0.5600403593808412,-0.30222061332166195,0.2239776822119951
1639509996650912500,0.57191259765625,-0.25173954936265946,-0.07393383573889732,1.1419050125569103
1639509996660932600,0.5819326171875,-1.1045616625905037,0.5652420196771621,0.6779214733958244
1639509996670953500,0.591953369140625,-0.6479951216876506,0.6507312686532736,0.1464583892017603
1639509996680973600,0.6019736328125,0.3646405368775129,0.40218788498342034,0.08689911577403545
1639509996690994400,0.611994384765625,0.648300242114067,0.13170739479362964,0.18769640851914882
1639509996701014500,0.6220146484375,0.32205227199494835,-0.0917114844918251,0.34588498300313947
1639509996711034600,0.63203466796875,-0.6239505214944482,-0.10408113672137259,0.3126169196516275
1639509996721055500,0.642055419921875,-1.161440026371181,-0.0042740240573883054,0.30551322512626644
1639509996731075000,0.652074951171875,-0.7445709973454475,0.2006990979552269,0.507218285253644
1639509996741095200,0.66209521484375,0.7148319849029183,0.374933382833004,0.13288929805457592
1639509996751116000,0.672115966796875,2.318981583999097,0.3394868063986301,-0.161455467325449
1639509996761136000,0.68213623046875,2.958158608458936,0.48062838449180123,-0.25979133839309215
1639509996771156000,0.692156005859375,2.6586992765441537,0.6776040780097246,-1.0685463463574647
1639509996781177000,0.702177001953125,1.88755386826694,0.23818448674082754,-1.116252684906125
1639509996791197200,0.712197265625,0.9197063227161765,-0.24052315882146358,-0.33236265360713
1639509996801217000,0.722217041015625,0.26661504693329335,-0.07468260827958584,-0.012047580668330192
1639509996811238100,0.732238037109375,-0.017376082214713096,0.26158757416009903,-0.06036883624494076
1639509996821258000,0.742258056640625,-0.35555765123367306,0.10523439840972423,-0.32938100744783877
1639509996831278000,0.752278076171875,-0.6799491798311471,-0.11732172656655311,-0.07532149070501327
1639509996841299000,0.762298828125,-0.6538564149364828,-0.22064298483133316,0.1300397538423538
1639509996851319000,0.772319091796875,-0.26211042899042364,-0.09777999075055122,0.07670446949601173
1639509996861340200,0.782340087890625,0.20804595358669756,0.1129693765759468,-0.18103344349861145
1639509996871360000,0.792360107421875,0.44446050804555415,0.34365561651587484,-0.6734755999028682
1639509996881380000,0.802380126953125,0.23794220241755246,0.032114217141270635,-0.3326689430773258
1639509996891401000,0.81240087890625,-0.40254239750951526,-0.4073053741276264,0.26888883708417416
1639509996901421000,0.822421142578125,-0.8932476471185684,-0.2430582302570343,0.3262549843817949
1639509996911441200,0.832441162109375,-1.0450389217808842,-0.01238660336434841,0.6113000064969062
1639509996921462000,0.8424619140625,-1.0860329032093285,0.14599486334323883,0.910598594892025
1639509996931482000,0.852482177734375,-1.0518331119656563,0.3317793007612228,1.0092074376821518
1639509996941502200,0.862502197265625,-0.8588695766985416,0.44394495973885056,0.6704431003391742
1639509996951523000,0.872523193359375,-0.5088391644537449,0.23461831869184968,0.7473790405035019
1639509996961543200,0.882543212890625,-0.03898673325926065,0.02604161922931671,0.7698509845525026
1639509996971563000,0.89256298828125,0.4311925918020308,0.1825724896341562,0.37254151926040646
1639509996981584100,0.902584228515625,0.7023281848996877,0.2732780119538307,0.23725158980488775
1639509996991604000,0.91260400390625,0.7518431803055107,0.16102642825841904,0.47768356321156025
1639509997001624000,0.9226240234375,0.6105559101313353,0.18257132059037684,0.2855558942466974
1639509997011645200,0.932645263671875,0.40504356667548413,0.12120353643596171,0.24716683461964128
1639509997021665000,0.9426650390625,-0.12721592859327793,0.10641104097366333,0.13576163862049578
1639509997031685000,0.95268505859375,-1.512512641145289,0.17917992458641527,-1.0320330174744128
1639509997041706000,0.9627060546875,-2.115715704295784,0.2937941457599401,-0.8337842352807522
1639509997051726000,0.97272607421875,-2.303363305237144,0.3721002052336931,0.31212884387373924
1639509997061747200,0.982747314453125,-2.0992881549775597,-0.08930968404710292,0.07596738739311695
1639509997071767000,0.99276708984375,-1.8633074618913232,-0.43479953025281426,-0.17459727297127245
1639509997081787100,1.002787109375,-1.0206436084538697,-0.04209083675444126,-0.2831523402363062
1639509997091808000,1.01280810546875,0.03875500686261803,0.20374504152238368,-0.10040332499146461
1639509997101828000,1.022828125,0.8799223015993833,-0.04265373133420944,0.26274960367679595
1639509997111848200,1.03284814453125,1.489445946073532,-0.23650807796120643,0.10950316177010536
1639509997121869000,1.042869140625,1.5982511887073516,-0.32435879537165163,-0.09421557626724243
1639509997131889200,1.05288916015625,1.1380839929640292,-0.39771804609298705,0.07831541182398796
1639509997141909200,1.0629091796875,0.1980535518825054,-0.49436640246510505,0.12178221310675144
1639509997151930000,1.07293017578125,-0.22691607375144957,-0.4978665195405483,-0.0412742596745491
1639509997161950200,1.0829501953125,0.7656592319510876,-0.4265168550759554,-0.15994038658738136
1639509997171970000,1.092969970703125,-0.49862289086580275,-0.1292477266818285,0.0027981062859296795
1639509997181991200,1.1029912109375,-1.3695277732729911,0.45183658977150915,0.1624216820091009
1639509997192011000,1.113010986328125,-0.7578468046344816,0.23109657430648803,0.32615736922621724
1639509997202031000,1.123031005859375,0.011795651733875274,0.10433598826527594,0.2546294255852699
1639509997212052200,1.13305224609375,1.1071009718097746,0.09607377135455608,-0.012694061878323554
1639509997222072000,1.143072021484375,2.0754406847916544,0.08145078724026679,-0.2580424488991499
1639509997232092200,1.153092041015625,2.4215876797318456,0.09685176998972893,0.07823007162809371
1639509997242113000,1.163113037109375,1.6388741448663173,-0.007018938851356506,-0.10996610310673713
1639509997252133000,1.173133056640625,0.859786399282515,0.06039630877375602,-0.344815307945013
1639509997262154000,1.183154052734375,0.3507470360815525,0.03183072402477264,-0.3470984504461288
1639509997272174000,1.193174072265625,0.21980463431105016,-0.012000818917155265,-0.23715163656175134
1639509997282194200,1.203194091796875,0.05764642554372549,0.029358780953288078,0.01810264292359352
1639509997292215000,1.213215087890625,-1.0368775348961352,0.3176046449363231,0.3983376392960548
1639509997302235100,1.223235107421875,-1.3890262544691563,0.5642927561283111,0.2996072159528732
1639509997312255200,1.233255126953125,-1.2278678703941404,0.5851636947214603,0.11904080544412135
1639509997322276000,1.243276123046875,-0.32035861981958147,0.566530890443921,-0.04428337836265564
1639509997332296200,1.253296142578125,0.7089405887767672,0.5551420659452676,-0.004376315388083457
1639509997342316000,1.26331591796875,0.9640613050103187,0.5037403800100088,-0.020379940205812453
1639509997352337200,1.273337158203125,0.3683846918419003,0.4585346261054277,-0.30937399220764633
1639509997362357200,1.283357177734375,-1.159977552603185,0.2191986312419176,-0.6558394054472446
1639509997372377000,1.293377197265625,-2.0589421160638333,-0.39323885485231874,-0.8918167375326156
1639509997382398200,1.303398193359375,-3.5895737667456267,-0.9775842189282178,-1.1352274344891309
1639509997392418000,1.31341796875,-5.870158107811212,-1.0780039105325936,-3.262598359134793
1639509997402438100,1.323438232421875,-3.270530613438785,0.0391565368682146,-3.2460306706935165
1639509997412459000,1.333458984375,2.1245055983424184,-0.10026187069416045,1.506063318875432
1639509997422479000,1.34347900390625,4.275437431317568,-0.5504501087367535,3.406951300489902
1639509997432500200,1.353500244140625,3.850060978448391,-0.45463761866688723,3.5103988154828545
1639509997442520000,1.36352001953125,1.9307517894804476,-0.40117432402670383,2.3337498218029737
1639509997452540200,1.3735400390625,0.7857371204704046,-0.4475906227648258,0.7252145549684762
1639509997462561000,1.38356103515625,0.4816887071996927,-0.8899585424453019,0.05330021303296089
1639509997472581000,1.3935810546875,0.2515305827870965,-0.7061427747517823,-0.08890402585566043
1639509997482601200,1.403601318359375,-0.11181845297515391,0.08993687603473663,0.187466691416502
1639509997492622000,1.4136220703125,-0.4597279275432229,1.2867939604848622,0.5666705911755562
1639509997502642200,1.42364208984375,-0.39977585540562866,1.685441396382451,0.6314513986438512
1639509997512662000,1.433662109375,0.23567659557312726,1.1821534363150596,0.2985784574270248
1639509997522683100,1.44368310546875,0.8329279107123613,0.48264556953310966,0.6367828227996826
1639509997532703200,1.453703125,0.8401514322251081,-0.23027473652958869,1.310476449367404
1639509997542722800,1.463722900390625,0.8880968402266501,-0.15947802977263925,0.5735626887768507
1639509997552744200,1.473744140625,0.5022776139810681,-0.4872556936770677,-0.9149632198423147
1639509997562764300,1.483764404296875,0.27269582815170285,-0.9754670806437731,-2.1184891145318745
1639509997572783900,1.493783935546875,0.3032806437686085,-1.1645049668997525,-2.164630103459954
1639509997582805200,1.50380517578125,0.17461568541079758,-1.023121981266141,-1.7787433649361133
1639509997592824800,1.513824951171875,0.18129004860818385,-0.7829232320934534,-0.7413274853795766
1639509997602846200,1.52384619140625,0.945533714672923,-0.8752782751858234,-0.2404606149792671
1639509997612866000,1.533865966796875,1.0935542386248707,-0.7204606384396552,-0.2901578350841999
1639509997622886000,1.543885986328125,0.7359808636546135,-0.7916226713776588,-0.21270108591616152
1639509997632907300,1.5539072265625,0.5629428028240799,-0.8483768242567777,-0.03409223921597004
1639509997642927000,1.563927001953125,0.6325888782411814,-0.6808247936218976,0.18452420822381974
1639509997652947000,1.573947021484375,1.4064555281758309,-0.32336043198406694,0.7852548899114131
1639509997662968000,1.583968017578125,1.4147130689114331,0.2553542327284813,1.231172611027956
1639509997672988000,1.59398779296875,0.9417790383145213,0.5502455260753631,1.021753031000495
1639509997683008000,1.604008056640625,0.5296797079086304,0.8541460553079843,0.6512789656639099
1639509997693029000,1.614029052734375,-0.35985710199326276,1.0573486605167388,0.4170575373351574
1639509997703049000,1.624049072265625,-1.2724910021051763,1.0491939956337213,0.32243396478891373
1639509997713069000,1.634069091796875,-1.3331570677310227,0.6793418615877628,0.013380875098705291
1639509997723090000,1.64408984375,-1.5337638112276792,0.16057985353469847,-0.9678712186872959
1639509997733110300,1.6541103515625,-1.5264245543807744,-0.20865794800519943,-1.3800778088599444
1639509997743130000,1.664130126953125,-0.013827449822425841,0.4683019868820905,-0.6029834290504456
1639509997753151200,1.674151123046875,0.6383832437336444,0.7733195374459028,0.1423193897008896
1639509997763171000,1.684171142578125,0.5310556724369525,0.25542788248658177,0.8089718655854463
1639509997773191200,1.694191162109375,0.5519049837201834,-0.2477811671257019,1.0848024846315383
1639509997783212300,1.70421240234375,0.3802203833252191,-0.641577071338892,0.9787462484449148
1639509997793232100,1.714232177734375,0.17045301277339459,-0.5748457143247128,0.9703712188094854
1639509997803253200,1.724253173828125,0.4125155099913478,0.12297405323982238,0.8163198902606964
1639509997813273000,1.734273193359375,-2.686501475705206,1.0412632026344537,0.2713338921487331
1639509997823293200,1.744293212890625,-9.762841837933658,1.573882471126318,-0.48599078830778597
1639509997833314300,1.754314208984375,-11.001632522749901,0.15643325524926185,-0.018646248281002045
1639509997843334100,1.764334228515625,-4.373068953508138,-1.0013380194813013,1.042208374530077
1639509997853354200,1.774354248046875,4.315165630593896,0.07156710660755634,1.0682441485404968
1639509997863375000,1.784375,8.434035366627574,1.5673521925747393,-0.09210837485492229
1639509997873395200,1.794395263671875,8.225947911986708,1.7614181361258028,-0.7190104396313428
1639509997883415300,1.804415283203125,5.239216412255168,0.6171358730435371,-0.22895722419023512
1639509997893436200,1.814436279296875,2.071887522354722,-0.4204956950902939,0.3063882543951273
1639509997903456300,1.824456298828125,-0.6478051520735025,-0.7569716292351484,0.3285176686167717
1639509997913476400,1.834476318359375,-2.7452935641527176,-0.18034984514862298,0.4713882624596357
1639509997923497200,1.844497314453125,-2.7383652261942624,0.814535637192428,0.9633423430860042
1639509997933517300,1.854517333984375,-0.98298870832026,1.1356214022427797,1.0700906531900167
1639509997943538200,1.8645380859375,0.8611907131224871,0.7864461455225944,0.4370680597066879
1639509997953558300,1.874558349609375,1.9936276401102542,0.5106640417933463,0.002436287236213684
1639509997963578000,1.884578125,2.4332407081246377,0.28391572582423685,0.01880465371310711
1639509997973599200,1.89459912109375,2.284710773345828,0.27233751623332497,0.1170125144869089
1639509997983619300,1.904619384765625,1.5664473526895046,0.06654606357514858,0.2872732195585966
1639509997993639200,1.91463916015625,0.8932903172165155,-0.15893676250278949,0.18303309288322925
1639509998003660300,1.924660400390625,0.4898199912071228,-0.222580967156589,-0.30482232025265693
1639509998013680000,1.93468017578125,0.011390578064322471,-0.39632483816891906,-1.0057207646101713
1639509998023700200,1.9447001953125,-0.2756079162061214,-0.3906070450440049,-1.1118863063901663
1639509998033721000,1.95472119140625,-0.3361994552910328,-0.6311535847410559,-0.7737111671119928
1639509998043741200,1.9647412109375,-0.4755845451056957,-0.7213502807557582,-0.5985650280863046
1639509998053761300,1.97476123046875,-0.6179875214368105,-0.7297326169148087,-0.3711813368231058
1639509998063782100,1.9847822265625,-0.703832744243741,-0.7755249385356903,-0.3288344794809818
1639509998073802200,1.99480224609375,-0.8259282610833645,-0.46524406061619517,-0.514204490879178
1639509998083822300,2.004822265625,-0.7626800700098275,-0.04202946195602417,-0.507259201785922
1639509998093843200,2.01484326171875,-0.6813426800161599,0.3559267768070101,-0.24728549256324767
1639509998103863300,2.02486328125,-0.5806710594773292,0.7297139122143388,-0.04356909261345863
1639509998113884200,2.03488427734375,-0.6892237886548042,0.671359046140313,0.12069734047949314
1639509998123904300,2.044904296875,-0.6807628343015909,0.4446612913146615,0.06570727466344833
1639509998133924400,2.05492431640625,-0.6672697310000658,0.3356020739197731,-0.31262919461131095
1639509998143945200,2.0649453125,-0.4239490504145622,0.418205246065557,-0.3634954584956169
1639509998153965300,2.07496533203125,0.21737141581475733,0.5963669335201383,-0.03990530940890312
1639509998163985200,2.084985107421875,1.0750684416025877,0.8882447242647409,0.5006932673990726
1639509998174006300,2.09500634765625,1.2770412127554416,0.7743743071958422,1.0625836385607719
1639509998184026400,2.1050263671875,1.1586544873058795,-0.04343669840544462,1.1127999141037463
1639509998194046200,2.115046142578125,0.312132935526967,-0.6658788611635565,0.8211801897734403
1639509998204067300,2.1250673828125,-1.2019231356680393,-0.5566486711159349,0.4424257873475551
1639509998214087200,2.135087158203125,-2.1701596805363894,-0.1270139762803912,0.048260465300083155
1639509998224107300,2.145107177734375,-2.2196137395352125,0.06052665715515613,0.026263737547397612
1639509998234128100,2.155128173828125,-1.7679980990380049,0.26610768193304535,0.325876214197278
1639509998244148200,2.165148193359375,-1.1538070472747086,0.6584305909842252,0.9392951125442981
1639509998254168300,2.175168212890625,-0.19290566760003566,1.0528642085790634,1.2407581854969263
1639509998264189200,2.185189208984375,0.8085831585288047,0.925147344726324,0.16820201897621154
1639509998274209300,2.195209228515625,1.6649311077952385,0.693252605779469,-0.9805448222994804
1639509998284230100,2.205230224609375,1.7527543526768683,0.6204343300670385,-1.494626563581824
1639509998294250200,2.215250244140625,1.2100497435003519,0.9780109199076891,-1.0865998894423246
1639509998304270300,2.225270263671875,0.6083692137420177,0.8587459503188729,-0.721391781809926
1639509998314291200,2.235291259765625,0.25146774668395516,0.5210182625472546,-0.6492869150638579
1639509998324311300,2.245311279296875,0.2732300811588764,0.24061814362853765,-0.6083756434828043
1639509998334331400,2.255331298828125,0.204184601983428,0.030282033278048036,-0.37073534662127494
1639509998344352300,2.265352294921875,0.39442484976649284,0.26188743388950825,-0.37022388996779915
1639509998354372400,2.275372314453125,0.5439157385319471,0.4116021945387125,-0.1728314323425293
1639509998364392200,2.28539208984375,0.47253626345098015,0.47485564630925653,0.08198094859421252
1639509998374413300,2.295413330078125,0.14483926356732846,0.603420943684876,0.03934709100425243
1639509998384433200,2.30543310546875,-0.03663315587043762,0.592148731303215,0.12826105373203753
1639509998394453200,2.315453369140625,-0.10762450841665268,0.545368859949708,0.36018706459999084
1639509998404474400,2.325474365234375,-0.11807926693558692,0.1812161065891385,0.27730712133944035
1639509998414494200,2.335494140625,0.1339402684122324,-0.44055502503961325,-0.14612112007141112
1639509998424514300,2.345514404296875,0.5794511622935533,-1.0499240634739397,-0.5549766462504864
1639509998434535200,2.35553515625,0.27181612270772454,-0.6896744550317525,-0.3646569034904241
1639509998444555300,2.36555517578125,0.07677519664466381,0.3331339302405715,0.09097264882326125
1639509998454575000,2.3755751953125,1.0228706368535756,-0.20268004263937472,0.5477689068287611
1639509998464596200,2.38559619140625,0.2866653167933225,-0.05135843131542205,-0.21631576928198337
1639509998474616300,2.3956162109375,0.5031359843760729,-0.0013458616510033607,0.10723697040379047
1639509998484637200,2.40563720703125,-0.05830898110568523,-0.19027619587928055,-0.03763853352069855
1639509998494657300,2.4156572265625,-0.10987257960438727,-0.1600257267832756,-0.039165304696559905
1639509998504677000,2.425677001953125,0.10891221013963222,-0.0315320333391428,-0.2211591176599264
1639509998514698200,2.4356982421875,-0.014906477230787276,0.10636194113492965,-0.33422727843523026
1639509998524718300,2.44571826171875,-1.698857927316427,0.6625500090017914,-0.4771826279520988
1639509998534738200,2.45573828125,0.8988146335959434,0.34009266333729027,-0.047153965362906454
1639509998544759300,2.46575927734375,0.7439554957956075,0.14084902488738296,-0.5621189192205667
1639509998554779400,2.475779296875,0.5378343727916479,-0.5351292054861784,-0.5423386984735727
1639509998564799000,2.485799072265625,0.3945096054404974,-1.2236682267472148,-0.7407189980924129
1639509998574820400,2.4958203125,0.26031214739680286,-1.1014552210077644,-0.5072217923849821
1639509998584840000,2.50583984375,0.2657856103718281,-0.4132023232117295,0.03877192146480083
1639509998594860000,2.515860107421875,0.17127894220352172,0.23630904825776813,0.4834761751383543
1639509998604881400,2.52588134765625,0.25802666680812836,0.46005438301861284,0.6040700552433729
1639509998614901000,2.53590087890625,0.0722357996493578,0.3666831486210227,0.5509054512888193
1639509998624921000,2.545921142578125,-0.01615676955282688,0.29814795705527064,0.5526905811399221
1639509998634942200,2.555942138671875,-0.19061784892380237,0.11353402472138405,0.3316793475180864
1639509998644962000,2.565962158203125,-0.44380642805099485,-0.06930325332880019,0.20027415054142475
1639509998654982100,2.575982177734375,-0.6328168417781591,-0.6768450763359666,-0.012674188134074211
1639509998665003000,2.5860029296875,-0.22528408863544463,-0.7254469024196266,0.19468202962279318
1639509998675023000,2.596023193359375,0.12434884872436523,-0.4455065099671483,0.3038987756669521
1639509998685044200,2.606044189453125,1.2312269715636968,0.9625450552284717,0.21918810984790324
1639509998695064000,2.61606396484375,1.1688707608938216,2.544563778798282,0.3661152856051922
1639509998705084200,2.626084228515625,0.4760550852268934,1.8035396602794527,0.25359014566540716
1639509998715105000,2.63610498046875,0.26864976763129234,1.5431217144206166,0.017369067952036858
1639509998725125000,2.646125,-0.2908312043011188,-0.5931710600882768,-0.5900567274600267
1639509998735145000,2.65614501953125,-0.178389650991559,-2.2313608759522436,-0.9000614187866449
1639509998745165800,2.666165771484375,-0.44452129832208154,-1.0117258502438664,-0.4635112454742193
1639509998755186000,2.67618603515625,-0.09568389525413512,-1.3065291730463504,-0.5842804821461439
1639509998765205800,2.686205810546875,0.5611912829816341,-1.4096937794446944,-0.5334761775821447
1639509998775227000,2.696226806640625,0.8974591273337602,-1.6357155347049235,-0.3761509419292211
1639509998785247000,2.7062470703125,0.5174287136226892,-1.148319263513386,-0.4351315386861562
1639509998795266800,2.716266845703125,0.16515958254039287,-0.4945204239830374,-0.5064373640090227
1639509998805288000,2.726287841796875,-0.08540157069265841,-0.06505845536589622,-0.5163976170092821
1639509998815307800,2.736307861328125,-0.1616635571181774,0.38945524466037745,-0.40037411355972286
1639509998825327900,2.746327880859375,-0.028058804270625112,0.09697598089128733,-0.04185118277966976
1639509998835348700,2.7563486328125,0.17441139501035213,-0.3542880696892738,0.08638707459867
1639509998845368800,2.766368896484375,0.34561551841199395,-0.7322723645254969,0.06330196708738803
1639509998855389000,2.776388916015625,0.43352410348951814,-0.9841802561923861,0.040513796696066855
1639509998865409800,2.786409912109375,0.26760230440497396,-1.252838207130134,0.14717442851662635
1639509998875430000,2.796429931640625,-0.1308855570167303,-1.6454399331226943,0.6509001954793929
1639509998885450000,2.806449951171875,-0.1292740301668644,-0.9496794361755251,0.4941898768544197
1639509998895470800,2.816470947265625,-0.11307517503798008,-0.42420887039452787,-0.00019347674548625944
1639509998905491000,2.826490966796875,-0.208733351328969,0.13611732019037007,-0.5740192003726959
1639509998915511800,2.83651171875,-0.18042378716766833,0.6947565806016326,-0.41322248921692367
1639509998925532000,2.846531982421875,-0.09848083249628543,0.6138733641162515,0.035409751555323596
1639509998935552000,2.856552001953125,0.032171500286459924,0.27959099449291824,0.2682411868304014
1639509998945572900,2.86657275390625,0.03769873927533626,-0.04058043219149112,0.4678378765016794
1639509998955593000,2.876593017578125,-0.0283469735622406,-0.3568672725275159,0.4115279602587223
1639509998965612800,2.88661279296875,-0.03661328212618828,-0.6107014560818672,0.40723815411031244
1639509998975634000,2.896634033203125,0.06348375339508057,-0.5724629108414053,0.29078736515939235
1639509998985653800,2.90665380859375,-0.0030050270348787305,0.35145971439555285,0.002217091527581215
1639509998995673900,2.916673828125,-0.007729132947325706,1.9036536469355225,-0.2073036107867956
1639509999005695000,2.926695068359375,0.0015600889235734938,1.9435504807770252,0.04038753996789455
1639509999015714800,2.93671484375,0.13419161282479763,1.1879863802522421,0.1843897681891918
1639509999025735000,2.94673486328125,0.36149405554533004,0.07453019419685006,0.3620388299465179
1639509999035755800,2.956755859375,0.5319663575410842,-0.8094048501752317,0.6559247456431389
1639509999045776000,2.96677587890625,0.46066345482766624,-1.5967334776207804,0.7301970195561647
1639509999055796000,2.9767958984375,0.2558680274695158,-1.7656847075290978,0.4822054245501756
1639509999065816800,2.98681689453125,0.284486219188571,-1.371651487428695,0.1288853231102228
1639509999075837000,2.9968369140625,0.09945581500828266,-0.7087593869909644,-0.2666162159770727
1639509999085857800,3.00685791015625,0.01405365979373455,-0.3436762209124863,-0.3971867156952619
1639509999095878000,3.0168779296875,0.09744038353264331,0.10138371433094143,-0.35532091986835
1639509999105898000,3.02689794921875,0.004167641073465347,0.7214259763404727,-0.49764089409112927
1639509999115918800,3.0369189453125,0.06215221253037452,0.7546697820335626,-1.0780915888160467
1639509999125939000,3.04693896484375,-0.027887539356946944,0.6837079478427768,-1.4550801506131887
1639509999135958800,3.056958740234375,0.2036433347135782,0.2786982834368944,-1.1339707124263048
1639509999145980000,3.06697998046875,0.581449058112502,0.09129567023254931,-0.6386690749377012
1639509999156000000,3.077,0.6610153467804193,0.018902926455810664,0.33307927744388577
1639509999166019800,3.087019775390625,0.4987158298462629,0.04133000844977796,0.9355424820125102
1639509999176041000,3.097041015625,0.13762509440481663,0.720211705179885,0.9313497064977884
1639509999186060800,3.107060791015625,-0.17821721703410148,0.7444473709657787,0.9866875628381967
1639509999196081000,3.117080810546875,0.06671089874804019,-0.18210479905717072,1.137657291984558
1639509999206102000,3.12710205078125,-0.5174380659729242,-1.6308445676676928,1.234063071772456
1639509999216121900,3.137121826171875,-1.5713883162230253,-2.458458151489496,0.8213637296468019
1639509999226142000,3.147141845703125,-0.8621668646782636,-0.9768106042072177,0.29486148273050783
1639509999236162800,3.157162841796875,0.20005670839846132,0.7970904352642595,-0.07032967376708985
1639509999246183000,3.167182861328125,-0.001527355697751045,1.5665385381042956,0.11585633018910885
1639509999256203000,3.177203125,-0.44481648187637324,2.204135015374422,0.28310791657268997
1639509999266223900,3.187223876953125,-0.7418254980295896,2.1243378405600786,0.1857148793131113
1639509999276244000,3.197243896484375,-1.1244079343110323,2.1830387435927987,0.09486264199912547
1639509999286264800,3.207264892578125,-1.8932757530450819,1.3830353434912859,-0.6773106480211019
1639509999296285000,3.217284912109375,-0.41268940525352954,0.24411785884518175,-0.7689560815393924
1639509999306305000,3.227304931640625,1.5727163499563932,0.1295386359198019,0.45765725874900814
1639509999316326000,3.237325927734375,1.766609859549999,1.1044925428770482,0.7972171303838491
1639509999326346000,3.247345947265625,1.5267664996862411,1.302100835210085,0.6264882232785225
1639509999336365800,3.25736572265625,0.8247294066876173,1.2151074652813374,0.39449382334947586
1639509999346387000,3.267386962890625,0.27131460292637344,1.42496704416126,0.14580080207586288
1639509999356407000,3.277406982421875,0.38951194328367705,1.4329156650781631,0.08747545435726642
1639509999366427000,3.287427001953125,0.5046440508514642,0.5818486153567209,0.5766191537380219
1639509999376448000,3.297447998046875,0.7817080110847949,0.31745990270338953,0.9825462252497672
1639509999386467800,3.3074677734375,1.5285972222447395,0.7188343524120747,1.4121920260012149
1639509999396488000,3.317488037109375,0.16795885787010192,0.10672595214173197,1.6095184326529501
1639509999406508800,3.3275087890625,-0.7969406515300274,-0.7704795647796243,1.293370416265726
1639509999416529000,3.33752880859375,-0.04358370566070079,-0.8238703056402504,1.4862550410777329
1639509999426549000,3.347549072265625,1.0160948591083288,0.6470750111680478,1.9378397019147873
1639509999436569900,3.35756982421875,1.0099462733507156,0.7611544678777455,2.112632789719105
1639509999446590000,3.36758984375,-0.27654490479528904,-1.0439521494574844,-0.36601124070882796
1639509999456610000,3.377610107421875,-1.2671417500317097,-1.9004465214572845,-2.399270633983612
1639509999466631000,3.387630859375,-2.484749361565709,-1.7107777899518608,-3.2908412878006694
1639509999476651000,3.397651123046875,-2.982402530616522,-0.6458734533585607,-3.3861563497424125
1639509999486670800,3.4076708984375,-1.4524462949782608,1.633347928790748,-0.06371405501961708
1639509999496692000,3.41769189453125,-1.5316203694581985,3.117271604311466,0.8800947355568408
1639509999506712000,3.427712158203125,-1.282629826542735,1.9833929540827868,-2.0992682812333108
1639509999516733000,3.43773291015625,1.989258338984847,0.8339101997479796,-3.49807943213582
1639509999526753000,3.4477529296875,3.890766498324275,0.4701125434353947,-3.854329741808772
1639509999536772900,3.45777294921875,1.6179010610729454,0.4011614645451307,-3.2427281220167874
1639509999546794000,3.4677939453125,0.205133865532279,0.47874900048598645,-1.1301035156041384
1639509999556814000,3.47781396484375,-0.27728374046385285,0.35700068964883686,0.852436328780651
1639509999566834000,3.487833984375,0.01704991900026798,0.13170123904747888,2.029288736078143
1639509999576855000,3.49785498046875,0.7728671175032854,-0.13868086880175395,1.3335434367001056
1639509999586875000,3.507875,0.9384458022385835,0.16609459836818277,-0.393736282980442
1639509999596895000,3.51789501953125,0.709125589954853,0.6330066652618348,-1.7258640076637266
1639509999606915800,3.527915771484375,0.21046938134133814,1.221472470268607,-2.405897358646989
1639509999616936000,3.53793603515625,-0.2532330027908087,1.6029555670060216,-2.2165397389173505
1639509999626956000,3.5479560546875,-0.4129033402651548,1.0940365422490983,-1.4206956504523753
1639509999636977000,3.557976806640625,-0.288967748516798,0.41453707894682884,-0.757654935324192
1639509999646997000,3.5679970703125,0.02878127332627773,-0.0724916741065681,-0.4651420615464449
1639509999657017000,3.57801708984375,-0.032011341288685796,-0.2764583224903792,-0.3409527872979641
1639509999667038000,3.588037841796875,-0.6919055750846862,-0.29978030749745666,-0.08033610399663448
1639509999677058000,3.59805810546875,-1.1536427966237068,-0.3097692751355469,-0.008549801680445671
1639509999687079000,3.608078857421875,-1.1991361352980137,-0.4204309592910111,0.20806874994039534
1639509999697099000,3.61809912109375,-0.5760942530810833,-0.4661198205374181,0.3753314422398805
1639509999707119000,3.628119140625,-0.16081950750946997,-0.23588453923538324,0.2760714420646429
1639509999717140000,3.638139892578125,0.20349369710981843,-0.35038068698719144,0.4702934529602527
1639509999727160000,3.64816015625,0.4525391850829124,-0.6157086167193949,0.9420417809039354
1639509999737180000,3.658179931640625,0.04732523027658462,-0.4108279952958226,0.8118313466697931
1639509999747201000,3.668200927734375,-0.24444997687637804,-0.5116166663430631,0.807036513608694
1639509999757220900,3.678220947265625,0.01035538979768753,-0.989537545441836,0.869202754664421
1639509999767241000,3.688240966796875,0.3469213403135538,-1.0688678333967923,0.5256757329642773
1639509999777262000,3.698261962890625,0.30717385181486606,-0.6323652986183762,0.11955810731649398
1639509999787282000,3.708281982421875,0.6331500192552805,-0.5557249803997576,0.3887321910828352
1639509999797301800,3.7183017578125,0.1031488243073225,-0.35291166676953434,0.5074474178344011
1639509999807323000,3.728322998046875,0.12400164272189139,-0.5706811419911683,0.6750403650015592
1639509999817343000,3.738343017578125,0.17167524804472922,-0.7316304133601487,0.22219284462183714
1639509999827362800,3.74836279296875,0.03256955969333648,-0.3347450186990201,-0.29678631331324573
1639509999837384000,3.758384033203125,0.12121347330808639,-0.3867391175694763,-0.29619945333600045
1639509999847404000,3.768404052734375,0.4966612354040146,-0.5668455093510448,0.10482231047749518
1639509999857425000,3.7784248046875,0.9413491224646567,-0.8306962061375379,0.7135930907577276
1639509999867445000,3.788445068359375,1.0745336040735245,-1.2948561247788368,1.3671364942222832
1639509999877464800,3.79846484375,1.1646283010184764,-1.2744020964235068,1.8424568354338406
1639509999887486000,3.80848583984375,1.3318378018260002,-1.5505992106944322,1.2705997815310954
1639509999897506000,3.818506103515625,1.2835311592966316,-1.344651544561237,0.3418532432690263
1639509999907526000,3.82852587890625,0.9963549703717232,-0.21503332825601099,-0.2253992394477129
1639509999917547000,3.838547119140625,0.48262335770130155,0.5881036936961114,-0.681997344532609
1639509999927566800,3.84856689453125,-0.2969663460552692,1.3036758294418453,-0.8551531865239143
1639509999937586700,3.858586669921875,-0.9364952526926994,1.4439534841820596,-0.08748422218561172
1639509999947608000,3.868608154296875,-1.517551512095332,1.0977905610203742,0.6868699190050364
1639509999957627600,3.878627685546875,-1.6136182691872119,0.7215338206291199,1.0903452134504914
1639509999967647700,3.888647705078125,-1.336696347773075,0.6724146926730871,0.5039183669254184
1639509999977669000,3.898669189453125,-1.1632055747389793,0.7406995627395808,-0.6749439188897609
1639509999987688700,3.908688720703125,-1.1442144585430623,0.3375223744578659,-1.0394652133017779
1639509999997708800,3.918708740234375,-1.103096850734949,-0.8705074075222015,-0.4131245818004012
1639510000007729700,3.928729736328125,-0.6918424467206001,-2.600253225055337,0.6089242172762751
1639510000017749800,3.938749755859375,-0.21809914556741714,-3.9096687671929597,0.7649947766929864
1639510000027771000,3.94877099609375,-0.18344167368412018,-4.210442396576703,0.24876667103171346
1639510000037790700,3.958790771484375,-0.6314829628258943,-3.5543390794962644,-0.30448037494719027
1639510000047810800,3.968810791015625,-0.707728582638502,-2.4254179055444895,-0.2776283161178231
1639510000057832000,3.97883203125,-1.6016928535938262,-1.6622019750922918,-0.3551876488775015
1639510000067851800,3.988851806640625,-1.1696738939702511,-0.10951251412034034,-0.21048574795424937
1639510000077871900,3.998871826171875,-0.799708947199583,0.8662069338493049,-0.03974807302057743
1639510000087892700,4.008892822265625,-0.9857435599863529,2.5063188038170336,-0.682605247297883
1639510000097912800,4.018912841796875,-1.7031424727678297,2.7837109730914236,-0.3875798061773181
1639510000107933000,4.028932861328125,-1.9082547109901904,1.705991724719107,-0.043303281284123654
1639510000117953800,4.038953857421875,-1.8927450071692467,0.2321365848787129,0.1727978223338723
1639510000127974000,4.048973876953125,-1.5630267305910586,-0.6952168185245245,0.5485774467326701
1639510000137993700,4.05899365234375,-1.2481260839164257,-0.8665596197444945,1.0301461808145045
1639510000148014800,4.069014892578125,-0.7688163808077574,-0.8824875489775091,1.1205248092673719
1639510000158034700,4.07903466796875,1.2556442044615745,1.0606358654938637,0.627829993276298
1639510000168054800,4.0890546875,3.280094268336892,4.1469381849154825,-0.8775481198139489
1639510000178076000,4.099075927734375,2.9055589449107644,4.3946994782969355,-2.9706103860139845
1639510000188095700,4.109095703125,1.8131448162317274,1.32512398340106,-4.628167165648937
1639510000198116900,4.119116943359375,0.5428501551270485,0.35654187649805097,-2.9694723218947647
1639510000208136700,4.12913671875,-0.5546966602653265,0.3571059035889804,-0.5850737514156847
1639510000218156800,4.13915673828125,-0.8353074993252754,0.047951326285675167,0.6584576251216232
1639510000228177700,4.149177734375,-0.7228828971505165,0.14673822905644773,2.303060669028759
1639510000238197800,4.15919775390625,-0.3457522965341806,0.2401423245440237,2.758123819631338
1639510000248217900,4.1692177734375,1.2162941908478737,0.5495327746961266,2.7799396378591656
1639510000258238700,4.17923876953125,1.8287398602485656,0.29891340673612427,2.8860084412664175
1639510000268258800,4.1892587890625,1.287258655387163,-0.3372374200366437,2.683814136317372
1639510000278279000,4.19927880859375,0.6977554701566696,-0.15104160707248374,2.354830019232631
1639510000288299800,4.2092998046875,0.3973042045950889,-0.45377124762851745,2.0385396717652675
1639510000298320000,4.21931982421875,0.007801029139757156,-0.4204617197554558,1.1610750655163078
1639510000308339700,4.229339599609375,-0.1501484758913517,0.1603717089430429,-0.07238058754806406
1639510000318360800,4.23936083984375,-0.2666168004989624,0.3369219243466854,-1.1280497248794883
1639510000328381000,4.249380859375,-0.4527800081014633,-0.11225854315916076,-1.726355882833898
1639510000338400800,4.25940087890625,-0.20793664799332617,-0.0438105732191354,-1.3052693822436034
1639510000348422000,4.269421875,-0.0515741198927164,-0.10601760294297709,0.7234453533388674
1639510000358441700,4.279441650390625,0.35765023959875103,-0.7087288457222283,1.9809660191968081
1639510000368462800,4.289462890625,0.6926935105919838,-1.6659826626747845,1.5859807590685784
1639510000378483000,4.29948291015625,0.6495376749545335,-1.860555971226096,1.700049767449498
1639510000388502800,4.309502685546875,0.8063058612465858,-1.2481474189653992,0.3504367280233651
1639510000398524000,4.31952392578125,0.7916191642463207,-0.30695549635645003,-0.7614985320750624
1639510000408543700,4.329543701171875,0.35802667169570923,1.662457849549502,-1.0831151160664856
1639510000418563800,4.339563720703125,-0.04096095594167709,2.7317498997077343,-2.396768295773864
1639510000428584700,4.349584716796875,0.04082300877571106,2.3227464894905685,-2.9596760272845626
1639510000438604800,4.359604736328125,0.15700024148225783,1.6311641550108789,-2.0861799593403934
1639510000448625000,4.369625,0.05932078849673271,1.4953982786066828,-0.6507737926207482
1639510000458645800,4.379645751953125,-0.22259762603044508,1.0817981882490217,0.1042304363984149
1639510000468665900,4.389665771484375,-0.3101730336308479,-0.21101528825368732,0.6582035772953182
1639510000478686000,4.39968603515625,-0.3073953856110573,-1.0251548753332347,1.638989441809058
1639510000488706800,4.409706787109375,0.06998597489595412,-2.181528631290793,3.594513853496313
1639510000498727000,4.419726806640625,0.2474585110425949,-2.646695242756605,4.272345310521126
1639510000508747800,4.429747802734375,0.32021044352054595,-1.3611675028152763,3.114136521156132
1639510000518767900,4.439767822265625,0.6693032826542854,-0.3571873713273555,1.3015516768947244
1639510000528788000,4.4497880859375,0.974672715395689,0.804804955164343,-1.0699900423597544
1639510000538808800,4.459808837890625,0.5511538730919361,1.3408867852002382,-2.7010312285780906
1639510000548829000,4.469828857421875,0.06884323460161686,1.1449657153017818,-2.607112297169864
1639510000558848800,4.479848876953125,-0.1871691697746515,0.8959761222343892,-1.5507714985214174
1639510000568870000,4.489869873046875,-0.27421324697732924,1.1424952335350216,-0.571294853442721
1639510000578889700,4.4998896484375,-0.20884031883478163,0.6582924976877867,-0.32748028839305043
1639510000588909800,4.509909912109375,-0.7050023725450039,0.21189590701311825,0.13918641630425116
1639510000598931000,4.519930908203125,-0.79768182528615,-0.44203258677888657,1.0744111467376352
1639510000608950800,4.52995068359375,-0.2830325132489204,-1.1811247508544473,1.689505284820497
1639510000618971000,4.539970947265625,0.0877992794841528,-0.33275910557880994,1.2425560286991297
1639510000628991700,4.54999169921875,0.1866203037202358,0.5453052931942045,0.06404522320274263
1639510000639011800,4.56001171875,0.11090952143669128,1.8106474464580415,-0.7423903653707354
1639510000649032000,4.570031982421875,0.7661293336808681,2.706807473891973,-3.094329996924102
1639510000659052800,4.580052734375,0.3527408402472734,3.9882916375309225,-5.037401462012529
1639510000669073000,4.590072998046875,-0.35114626453220843,3.7584292811945077,-4.850262687376142
1639510000679093000,4.600093017578125,-0.7835013242423534,2.8960040578410027,-3.733588562187552
1639510000689113900,4.61011376953125,-0.5676157630711793,2.8683228547111153,-2.7399787988707422
1639510000699134000,4.620134033203125,0.24663667326569555,1.844791123600304,-1.954198131519556
1639510000709154800,4.63015478515625,0.19606033223867414,1.3850401074424386,-0.9770646520335227
1639510000719175000,4.6401748046875,-0.8208931895256042,2.4765830062448977,-0.11058713934822008
1639510000729194800,4.65019482421875,-1.4754074838489293,1.7372705139495432,1.016276937676966
1639510000739216100,4.660216064453125,0.2801438060700893,-0.10644848690722138,2.1987886859104036
1639510000749236200,4.670236328125,0.9622831894218921,-0.4998756308732554,3.102590752530098
1639510000759256000,4.680256103515625,1.0683049388170243,-0.531858476719819,2.559330847558379
1639510000769277200,4.690277099609375,1.082143494555354,-0.7988654821127653,1.023346218476072
1639510000779297000,4.700297119140625,0.7093208202660083,-0.8667137873928994,0.3193277789345011
1639510000789317000,4.710317138671875,0.3527297343313694,-0.1708528257459402,0.340933351945132
1639510000799338000,4.720337890625,0.18191724059581754,0.06233812702391296,0.267781825690344
1639510000809358000,4.730358154296875,-0.0692202512204647,-0.35179749498255547,0.6460842465650289
1639510000819378200,4.740378173828125,-0.2641629776060581,-0.24910580332558602,1.7920428453616797
1639510000829399000,4.75039892578125,-0.16771452772021292,-0.026840222261101006,2.0657304610297085
1639510000839419100,4.760419189453125,-0.11133271528482437,-0.20831709867827594,1.6804542556196451
1639510000849440000,4.77043994140625,-0.042971711242198944,-0.2783548402940854,1.4032801130101085
1639510000859460000,4.780460205078125,0.00781914931833744,0.19462354090120643,1.0306424398988485
1639510000869480200,4.790480224609375,-0.02939209870100021,0.4043048406047746,1.022792383985594
1639510000879501000,4.8005009765625,0.0779734665185213,0.7691879905991256,1.8979926985643802
1639510000889521200,4.810521240234375,0.23420272362828254,-0.3072174352282658,1.4020222219035028
1639510000899541200,4.820541259765625,0.264403800624609,-1.1437742404948918,0.9229911165405065
1639510000909562000,4.83056201171875,0.14975918431282043,-1.243033729213476,1.3759832330226898
1639510000919582200,4.840582275390625,0.24528175152540205,-1.294549396917224,0.8555976423557847
1639510000929602000,4.85060205078125,0.05894844805300235,-0.7540265156939625,-0.32197913369350134
1639510000939623200,4.860623046875,-0.09499766655564308,-0.08774162187962792,-0.7450467981636524
1639510000949643000,4.87064306640625,0.02812251715660095,0.4157409017786383,-0.3583291983062401
1639510000959663000,4.8806630859375,0.11306290007829665,0.579109655379504,0.11825697072320616
1639510000969684200,4.890684326171875,0.1500952843993902,0.2152434821416624,1.0302776251744479
1639510000979704000,4.9007041015625,-0.06282791983485221,-0.588215483507514,1.8149089032948016
1639510000989725200,4.91072509765625,0.02173603098988533,-1.3533457231484354,1.2755445444568991
1639510000999745000,4.9207451171875,0.32606501476764677,-1.6864822837375104,0.256993761830125
1639510001009765000,4.93076513671875,0.4419400496572256,-1.5271497999154031,-0.30153748989570883
1639510001019786200,4.9407861328125,0.3515677048146725,-1.064968049479276,-0.5434745706357061
1639510001029806000,4.95080615234375,0.2150590472191572,-0.5779165731374174,-0.7610444316320121
1639510001039826200,4.960826171875,-0.01650748268663883,-0.28411181465191765,-1.0463025119759142
1639510001049847000,4.970846923828125,-0.35496611508131026,0.3441281293984502,-1.5301291079871355
1639510001059867100,4.9808671875,-0.498279191994667,0.8783988914243877,-1.9554362950123845
1639510001069887200,4.99088720703125,-0.35386838297247886,0.6865194981321692,-1.0404879074130207
1639510001079908000,5.000908203125,0.03777238903343677,-0.6639443859696388,0.09213902572151272
1639510001089928200,5.01092822265625,0.19113105914294717,-1.6035522177249193,0.2121676731592044
1639510001099948300,5.0209482421875,0.25712416501045227,-1.0537421604573727,0.7074971119701862
1639510001109969200,5.03096923828125,0.5183353070735931,-0.28000269883265716,0.9472951713874935
1639510001119989200,5.0409892578125,0.6526525921046733,0.40524800320640203,0.9546896655529737
1639510001130010000,5.051010009765625,0.5532604899823665,0.6263235342361032,0.7759249707039445
1639510001140030200,5.0610302734375,0.35870120995640753,0.2049980372581631,0.22879965900834648
1639510001150050000,5.071050048828125,0.07303250298500061,-0.11289892342193052,-0.32893110825587063
1639510001160071200,5.0810712890625,-0.17044190685749053,0.05773985771453008,-0.6083261783178895
1639510001170091300,5.09109130859375,-0.23528701173365116,0.3803914655758068,-0.29365302025619894
1639510001180111000,5.101111083984375,-0.07068623211979866,0.8177396939307451,0.6951460183106363
1639510001190132200,5.11113232421875,0.3917676132559776,0.5384608706595376,0.5108057152863592
1639510001200152000,5.121152099609375,0.2577075178563595,0.39997473897859454,0.41909466918595134
1639510001210172200,5.131172119140625,0.04357376878857613,0.9495052486523985,0.05568601219095289
1639510001220193000,5.141193115234375,0.005381108516454697,0.3121965753477067,0.13928177557066082
1639510001230213000,5.151213134765625,-0.005537760382890701,0.05775127415768802,0.6125156658969819
1639510001240233200,5.161233154296875,0.08786065428256988,0.4146118977487087,0.7560768723525106
1639510001250254000,5.171254150390625,0.09697685767412186,0.21117922837743536,0.3520953088853508
1639510001260274200,5.181274169921875,0.02941314148902893,-0.23577114198878407,-0.18455840275436639
1639510001270295000,5.191294921875,-0.046026422637701035,-0.48382096998803314,-0.5165383406542241
1639510001280315100,5.201315185546875,-0.054475102031230925,-0.2923027746910229,-0.6439307217929512
1639510001290335200,5.211335205078125,0.10897884563505648,-0.2815143637709319,-0.8643464006744325
1639510001300356000,5.221356201171875,0.36338439933657646,-0.6352673767354339,-1.6660685873925685
1639510001310376200,5.231376220703125,0.14978373423218727,-0.34971447816342116,-2.005802646550536
1639510001320396300,5.241396240234375,-0.11144728157520294,-0.08590338273495435,-1.2961053941875695
1639510001330417200,5.251417236328125,-0.07112170092761516,0.031283319275081156,-0.48785855494104324
1639510001340437200,5.261437255859375,-0.18521160596609115,0.3619770532893017,0.35142924619205296
1639510001350457000,5.27145703125,-0.09900748671889305,0.6456465127348899,0.838980342619121
1639510001360478200,5.281478271484375,0.022311785051226614,0.6763853498697281,0.6540650161858648
1639510001370498300,5.291498291015625,0.25460487566590306,0.03325429055448621,0.07788242723420262
1639510001380518100,5.30151806640625,0.28827801268696784,-0.052158020727895195,0.08781498850993812
1639510001390539300,5.311539306640625,0.25845044517815113,-0.03572995995301753,0.06555792932063341
1639510001400559000,5.32155908203125,0.4060276092767715,-0.16593060344550759,0.024806451411172745
1639510001410580200,5.331580322265625,0.4476502439975738,0.017216325075738132,0.15928886387608945
1639510001420600000,5.34160009765625,0.16826748542785644,0.362257879524678,0.8401029899735003
1639510001430620200,5.3516201171875,0.16380115366876125,0.31144835079628974,0.10486468831449747
1639510001440641300,5.361641357421875,-0.0744487995237112,0.34333482359629125,-0.3815626647796482
1639510001450661000,5.3716611328125,-0.17781740406155586,0.27807339300420136,-0.3178777627892792
1639510001460681200,5.38168115234375,0.06578501607477664,0.07119933274108917,0.005670666047558188
1639510001470702000,5.3917021484375,0.23583120161294935,-0.26160916493739933,-0.027218407923728226
1639510001480722200,5.40172216796875,0.22557401149272918,-0.3301163725176826,-0.10738105504959822
1639510001490742300,5.4117421875,0.22982640824019906,-0.3181353542795405,-0.09239647108130157
1639510001500763100,5.42176318359375,0.1342103175252676,-0.549836543415673,-0.21160444978587328
1639510001510783200,5.431783203125,-0.06755904000997542,-0.23513573016207664,-0.05580927324444055
1639510001520803300,5.44180322265625,-0.2819476406216621,0.015267894421704113,0.15783749602399766
1639510001530824200,5.45182421875,-0.24681086078882217,0.26067192061990496,0.22258644704930483
1639510001540844300,5.46184423828125,0.05489829587936401,0.35807507741469885,-0.5139814227130264
1639510001550865200,5.471865234375,0.639545857772231,-0.3406467900887131,-2.4468852025955914
1639510001560885200,5.48188525390625,0.3225894476115703,-0.33632896342221646,-3.1340353998467325
1639510001570905000,5.491905029296875,-0.14233517179191113,0.1993220009157434,-2.6630396438360213
1639510001580926200,5.50192626953125,-0.3221650847196579,1.227239801623672,-0.18895174234248696
1639510001590946300,5.5119462890625,-0.21294833867549895,0.8815160005316138,1.012341936315596
1639510001600966100,5.521966064453125,0.23592823224663734,0.23593119138870386,1.075549283922091
1639510001610987300,5.5319873046875,0.48633156456947324,-0.3779525479910895,0.7265780253414065
1639510001621007000,5.542007080078125,0.48963469776809215,-0.7056060375265777,0.2549086809180677
1639510001631027200,5.552027099609375,0.21236381678581237,-0.4119511906394735,0.3188238114677369
1639510001641048300,5.56204833984375,-0.15843465819954872,-0.3219242982337251,0.1731676785595715
1639510001651068200,5.572068115234375,-0.22987141642570494,-0.5012413662685081,-0.13452709185685963
1639510001661089300,5.58208935546875,-0.22967384802699087,-0.7597025155037641,0.003299589534662664
1639510001671109000,5.592109130859375,-0.19268413380384444,0.2832046549454331,0.7772526391111314
1639510001681129200,5.602129150390625,-0.07905541653633118,1.815343933711201,2.1012785981424154
1639510001691150000,5.612150146484375,0.6701648679196834,1.0525581383045761,1.0210763007827102
1639510001701170200,5.622170166015625,0.7470072845816612,0.8769484734203666,0.32362587798722087
1639510001711190300,5.632190185546875,0.5879565403103828,1.2381212611220775,0.5757131082763896
1639510001721211100,5.642211181640625,0.3877753287494182,0.5583585437737405,0.9580833265792578
1639510001731231500,5.6522314453125,-0.18598259033858774,-0.059369376878812906,1.4969056144297122
1639510001741251600,5.66225146484375,-0.13513853828608988,-0.6327152810998261,1.3289280518591404
1639510001751272400,5.6722724609375,-0.15439561194181442,-0.7176933656834066,0.9732853526905179
1639510001761292500,5.68229248046875,0.21661212188005446,-1.7701527928538618,-0.9417480586543678
1639510001771312400,5.6923125,0.7392039173543453,-2.1965286320239303,-2.7934569988191127
1639510001781333500,5.70233349609375,-0.6040817456811666,0.16945903329998255,-0.8060216374777257
1639510001791353300,5.712353271484375,-1.1477098994433879,1.529981223949045,0.9019999125685543
1639510001801374500,5.72237451171875,-0.6143734225928783,1.225177973723039,1.087778431702405
1639510001811394600,5.73239453125,0.25794483374357224,0.890585149911046,0.24165435480847952
1639510001821414400,5.742414306640625,1.0331026925325393,0.0028507497886195777,-1.8227492415316402
1639510001831435500,5.752435546875,0.2987187426805496,-0.11721450333241372,-2.4585545976012946
1639510001841455400,5.762455322265625,-0.2810515685647726,0.9683738344471902,-1.8346027609325943
1639510001851475500,5.772475341796875,-0.40250118871629237,1.6024179529979825,-0.9059083912491798
1639510001861496600,5.78249658203125,0.1341758307337761,1.5605970192261038,-0.6479411995433271
1639510001871516400,5.792516357421875,0.9070780195504426,1.3328855573132634,-1.9226231358215211
1639510001881536500,5.80253662109375,1.1093921514868736,1.100905478170514,-3.4478134722322222
1639510001891557400,5.812557373046875,0.44997079589962957,1.2549489156737923,-3.624888533493876
1639510001901577500,5.822577392578125,-0.1497474938750267,1.7244811750032008,-2.362666411946714
1639510001911597600,5.83259765625,0.0500537784576416,0.5839277597183361,-1.9592149367682634
1639510001921618400,5.842618408203125,-0.10694646302461623,0.25274474434982985,0.005499766460061073
1639510001931638500,5.852638427734375,-0.22089608280956743,-0.04239173766346648,1.281850366602838
1639510001941659400,5.862659423828125,-0.03728606682121754,0.31228739543631673,2.3535841108247637
1639510001951679500,5.872679443359375,0.31248890935778617,-0.4536852863781154,1.1621547505117953
1639510001961699600,5.882699462890625,-0.13718085776865482,-1.2460498621642588,0.19316833712421355
1639510001971720400,5.892720458984375,-0.48660979698896406,-1.2498716124095022,0.7670132769085466
1639510001981740500,5.902740478515625,-0.13248539342880247,-1.5827674961104987,0.9182309164013713
1639510001991760400,5.912760498046875,0.30487375817894935,-2.0326286941558123,0.32826420531235634
1639510002001781500,5.922781494140625,0.08274374966025352,-1.9556429235003887,0.5721968803163617
1639510002011801600,5.932801513671875,-0.01597381420135498,-0.35453495712243016,1.679905243434757
1639510002021821400,5.942821533203125,0.9062205259382724,-0.20763826783495024,0.7228823126286268
1639510002031842600,5.952842529296875,0.7696154222309589,0.012696436498500406,0.2577447080615908
1639510002041862400,5.9628623046875,0.3449772205084562,-0.12338365695402026,-0.2228623413812369
1639510002051883500,5.972883544921875,0.5297019197404385,0.44805144520960744,-0.5301802778419107
1639510002061903400,5.9829033203125,0.5501216074347496,0.8638793676845729,0.04609349652454257
1639510002071923500,5.99292333984375,0.18136311384439469,0.1334111299715936,1.0290683955151587
1639510002081944600,6.002944580078125,-0.6098071375906468,-0.9914529506091028,1.656427483344078
1639510002091964400,6.01296435546875,-0.9867658887714147,-1.5865343012981117,2.1842381825104353
1639510002101984500,6.022984619140625,-0.610979688501358,-1.518415873839706,1.7994772331461308
1639510002112005400,6.03300537109375,-0.16134440816640852,-0.8336394199825823,1.0327524177901446
1639510002122025500,6.043025390625,-0.05891279221773147,-0.2142232539821416,1.077783984171599
1639510002132045300,6.05304541015625,0.05508417384028434,-0.21842139979172498,0.9952424790851772
1639510002142066400,6.06306640625,-0.11687398279905319,-0.8593713887408375,1.3361514272414148
1639510002152086500,6.07308642578125,-0.27924598044753074,-1.6380900087513028,1.5025960811562835
1639510002162106400,6.0831064453125,-0.1945557728946209,-1.8683907565049827,1.9237429336316882
1639510002172127500,6.09312744140625,-0.046239773127436636,-1.8067293962314723,2.5114161269560453
1639510002182147600,6.103147705078125,0.4038432509750128,-0.9998811717364936,2.588837512549758
1639510002192168400,6.11316845703125,0.9961609091043472,0.12517989272102714,1.9833735187299548
1639510002202188500,6.1231884765625,1.1705331411480904,0.15419833580404518,1.260581660863757
1639510002212208400,6.13320849609375,0.7734615762650966,0.08570983292423189,0.6350517612233758
1639510002222229500,6.1432294921875,0.27584757018089295,0.07840290744435041,-1.2396592843443155
1639510002232249600,6.15324951171875,-0.36970541905164717,0.8178581326786428,-1.393332719491422
1639510002242269200,6.163269287109375,-0.5771142437785863,-0.2604013965828344,-0.9725456402391195
1639510002252290600,6.17329052734375,-1.2083353407979012,-0.278948714534007,-0.8264560843497514
1639510002262310100,6.18331005859375,-1.693323089542985,-0.031499190515466034,-0.5159136328846216
1639510002272330200,6.193330322265625,-1.2959499113649129,0.1295948961516842,-0.47417716252580283
1639510002282351600,6.2033515625,-0.5269868155628442,0.13952581345960496,-0.31426892464235423
1639510002292371200,6.21337109375,-0.32555180454850197,-0.38002062296941874,0.4903676882177591
1639510002302392600,6.223392578125,-0.6293149711370468,-0.7222486909002065,1.213081950803101
1639510002312412400,6.233412353515625,-0.536812044006586,-1.3240816347412765,0.8003541132353246
1639510002322432300,6.243432373046875,-0.41820787641406054,-1.135687380151078,0.32687486984580755
1639510002332453400,6.253453369140625,-0.415687418025732,0.493241782349348,0.7034415529690683
1639510002342473200,6.26347314453125,-0.18848259046077728,1.4157850820571183,0.9058861794173717
1639510002352493300,6.273493408203125,0.8831658135652541,2.295721704442799,-0.019017127420008183
1639510002362514400,6.283514404296875,2.202616427505016,2.20529952910915,-1.2256190685540438
1639510002372534300,6.2935341796875,2.547030753433704,0.4987576231613755,-1.536166196194291
1639510002382554400,6.303554443359375,2.111975787115097,-1.6217440002366899,-0.22465426629930732
1639510002392575500,6.313575439453125,0.9121861563444137,-2.352473226973414,1.954065445050597
1639510002402595300,6.32359521484375,-0.27676293146014214,-2.710485870143771,3.308343042221665
1639510002412615400,6.333615478515625,-0.4116618157714605,-2.8244468881055713,2.4473288547098635
1639510002422636300,6.34363623046875,-0.9851824189722538,1.2006893560893832,1.9063240351885555
1639510002432656400,6.353656494140625,-0.5446867229044438,1.184407644982636,0.8028095435634255
1639510002442677500,6.363677490234375,-0.3453869703531265,0.6383607396408915,0.07210194413661956
1639510002452697300,6.373697265625,-0.5384095423310995,1.0266514705665408,-0.1419151928141713
1639510002462717200,6.38371728515625,-0.6623322745978831,1.1041967748008668,-0.20041268222928046
1639510002472738300,6.39373828125,-0.7587754637867212,1.8035978202074765,-0.3924272462084889
1639510002482758400,6.40375830078125,-0.4028489792406559,1.7946423603355883,-1.297495679502189
1639510002492778200,6.4137783203125,0.5654635534733533,0.7469373611506074,-2.091168707538396
1639510002502799400,6.42379931640625,0.5042611890137195,0.5328124529764056,-2.1504370351955293
1639510002512819200,6.433819091796875,0.7263479429125785,0.6365951912730932,-1.5331686218135059
1639510002522839300,6.44383935546875,1.0523755482792854,0.6268241772346198,-0.9520521566562354
1639510002532860200,6.453860107421875,0.9048270257532596,0.9246805309321731,-1.3760302870348096
1639510002542880300,6.46388037109375,0.26587679578661916,2.121123116297275,-1.3315323891386388
1639510002552901400,6.4739013671875,-0.0489472785204649,1.4780312564812599,-2.1782583774484694
1639510002562921200,6.483921142578125,-0.23698212521374223,1.543832054647058,-2.7732366330891844
1639510002572941300,6.49394140625,-0.026911387801170347,2.1501817452602086,-2.4659078829735517
1639510002582962200,6.503962158203125,0.1684691454797983,1.2703987060010433,-1.2575639204777775
1639510002592982300,6.513982177734375,0.1758814675629139,0.39446167464554305,0.19277151982635257
1639510002603002400,6.52400244140625,0.24950375313460826,0.19091661267466842,0.8072459185756743
1639510002613023200,6.534023193359375,0.17947277005314827,0.36365715186335146,0.9308239290580153
1639510002623043300,6.544043212890625,0.15861469094157218,0.43054830254912374,0.7507241131477057
1639510002633063400,6.5540634765625,0.19959318253993988,0.13960282421857118,0.3418151032157242
1639510002643084300,6.564084228515625,0.56576808937788,-1.168423163256794,-0.38882995236888523
1639510002653104400,6.5741044921875,0.8891454724967479,-2.381489478099346,-1.2023809624381363
1639510002663124200,6.584124267578125,-0.4785387187361717,0.9670354985155165,2.3716988825775682
1639510002673145300,6.594145263671875,-0.3100128746330738,0.16545798096507786,2.039139391224086
1639510002683165200,6.604165283203125,0.08879939643740653,-1.2739144590370357,1.1331687483936548
1639510002693186300,6.614186279296875,0.059924015086889264,-0.7791492665126919,0.5109554259553551
1639510002703206400,6.624206298828125,-0.036539632368087764,0.7750980914257466,-0.10567921956777572
1639510002713226200,6.634226318359375,-0.11056582256555557,0.647511064497754,-0.8461486268132925
1639510002723247400,6.644247314453125,-0.023634558087587354,0.566524278040044,-1.5811229437738656
1639510002733267000,6.654266845703125,-0.07180500701665878,0.8879765748478472,-1.2207257435545324
1639510002743286800,6.664286865234375,-0.030754034703969955,0.5047922271504998,-0.41621787164062257
1639510002753308000,6.674307861328125,-0.11419453445672988,0.3869667888455093,0.34382103621065613
1639510002763327700,6.68432763671875,-0.10899287416040897,0.22953180920779703,0.6391475061044096
1639510002773347800,6.694347900390625,-0.023227730852365493,0.5131480771614239,0.7212102877631783
1639510002783368700,6.70436865234375,0.05100187296271324,0.5282429531037807,0.7942121033489704
1639510002793388800,6.714388916015625,0.07540566185712815,0.3089714758213609,0.7303574708148837
1639510002803410000,6.724409912109375,0.08981763356924057,0.4267682725537568,0.5050105460762977
1639510002813429800,6.7344296875,0.3594833002448082,0.15629633099660276,0.1456026491552591
1639510002823449900,6.744449951171875,0.4305979869097471,-0.0834200414866209,0.04566080419570207
1639510002833470700,6.754470703125,0.4018587991595268,-0.03286207636650652,0.14750059173107147
1639510002843490800,6.76449072265625,0.41053427304625506,-0.029863259876705704,0.22356530201882122
1639510002853511000,6.774510986328125,0.31690321866869925,-0.06901811624448746,0.27061434570252896
1639510002863531800,6.78453173828125,0.10169979454278945,0.24072324797082692,0.4156266277492046
1639510002873552000,6.7945517578125,-0.11481997287869453,0.37362756093144417,0.07984305978268384
1639510002883572000,6.804572021484375,-0.26313538812398907,0.44124304383639246,-0.1619821215480566
1639510002893592800,6.8145927734375,-0.2924129205346107,0.7266299747243523,-0.2171720938503742
1639510002903613000,6.824613037109375,-0.15722119075655935,1.174960456071049,-0.5210150476768612
1639510002913633800,6.8346337890625,0.15179682762026786,1.634056661581993,-0.6857894302919506
1639510002923654000,6.84465380859375,0.4748568153530359,1.784596913269907,-0.49835430305749173
1639510002933674000,6.854674072265625,0.4497077610492706,1.7603971225149928,-0.478785240843147
1639510002943694800,6.86469482421875,0.17658406287431716,1.2883810835458338,-0.18697583915963767
1639510002953715000,6.87471484375,-0.11369476824104785,0.6117329180214554,0.4226858986109495
1639510002963734800,6.88473486328125,-0.2769195833265781,0.09694206035537645,1.1238643289536236
1639510002973756000,6.894755859375,-0.12494973722696304,-0.24223253828892483,1.5236111043952405
1639510002983775700,6.904775634765625,0.10806874505281448,0.1081958785638213,1.7800323818333446
1639510002993795800,6.9147958984375,0.3776782976269722,0.11474361970685422,1.7453728641234336
1639510003003817000,6.92481689453125,0.6349053384900093,-0.45587662240993226,1.269178662686795
1639510003013836800,6.9348369140625,0.7601794853657483,-1.7329180178284644,-0.4769438507601618
1639510003023857000,6.94485693359375,0.3719260177105665,-0.9353902871254831,-0.4831259003959596
1639510003033877800,6.954877685546875,-0.1569143167644739,0.13223594871237873,0.24612784696072337
1639510003043897900,6.96489794921875,-0.3521627480983734,0.49995954629704353,0.49145957510769367
1639510003053918700,6.974918701171875,-0.3284276522457599,0.8838933971874415,0.53234264350757
1639510003063938800,6.984938720703125,-0.1782347526907921,0.9606122605349868,0.08394859540536999
1639510003073959000,6.994958984375,-0.09327040437161922,-0.0017965554274152963,-1.0769117313817143
1639510003083979800,7.004979736328125,-0.07107786178588867,-0.5766437767226249,-1.7191370374962687
1639510003093999900,7.014999755859375,-0.0327519305229187,-0.3640803457114845,-1.49260601753965
1639510003104019700,7.025019775390625,-0.0107575408577919,-0.020762317986367268,-0.9952964742947369
1639510003114040800,7.035040771484375,0.018558569997549054,0.45197073754519224,-0.38175884493887424
1639510003124061000,7.04506103515625,0.09004325901865959,1.0097110032901166,-0.12593370676301419
1639510003134080800,7.055080810546875,0.21886253115534782,0.7431009247928857,-0.36792101985290643
1639510003144102000,7.065101806640625,0.44523324598371977,0.263647593696136,-0.6252504981771111
1639510003154122000,7.0751220703125,0.6156488493561745,0.002236526880413294,-0.7713442918501794
1639510003164142800,7.085142822265625,0.5083025733590125,-0.43519568996354935,-0.8958014232546091
1639510003174163000,7.095162841796875,0.11656886237263679,-0.2956517928579822,-0.6330274157889187
1639510003184182500,7.1051826171875,-0.4150385987281799,0.10817951195091008,-0.10205737580880522
1639510003194204000,7.115203857421875,-0.7960983554869889,-0.003357164940796792,0.39137364550232884
1639510003204223700,7.1252236328125,-0.749486241915822,-0.5373275923132896,0.9423181866925209
1639510003214243600,7.13524365234375,-0.5321498974144458,-0.8614968564622104,1.5563886077508329
1639510003224265000,7.145264892578125,-0.24372692329883575,-1.077913894161582,2.1608418170928956
1639510003234284800,7.155284912109375,-0.00039279870986938477,-0.9237352129060774,2.5873668554753064
1639510003244304600,7.1653046875,0.3376701123654842,-0.31363515678346154,2.581861828318238
1639510003254325800,7.17532568359375,0.8377063771605491,0.12048684866712428,1.765395076932758
1639510003264345600,7.185345703125,0.9670891283988952,-0.5578301359854638,0.21829233005195856
1639510003274367000,7.195366943359375,0.793880679437518,-1.1821852927580474,-0.5268566133119166
1639510003284386800,7.20538671875,0.442040002900362,-1.6298860978990792,-0.7827297553479671
1639510003294406700,7.21540673828125,0.006608604484796524,-1.7029812908567488,-0.7149288694061339
1639510003304427800,7.225427734375,-0.19968202986717223,-1.110527292996645,-0.5082186214026063
1639510003314447600,7.235447509765625,-0.21451836447119713,-0.41818223051615055,-0.3807056095588952
1639510003324467700,7.2454677734375,-0.13665478806793688,-0.07041749818101525,-0.3917676132559776
1639510003334488800,7.25548876953125,-0.03971709336042404,0.08497992948079482,-0.3412430754814297
1639510003344508700,7.2655087890625,-0.00632686493396759,0.1545858738169074,-0.29677973744198677
1639510003354528800,7.27552880859375,-0.002332242339849472,0.17746501042731105,-0.2822849828172475
1639510003364550000,7.2855498046875,0.0446247391462326,0.3279046147523448,-0.197605296658352
1639510003374569700,7.29556982421875,0.06526069993972777,0.41951757077313956,-0.1646427190594375
1639510003384590800,7.3055908203125,0.019267010527849196,0.49785212568901477,-0.07400953132361174
1639510003394610700,7.315610595703125,-0.033469723403453826,0.439678461400792,0.17587167682126165
1639510003404630800,7.325630859375,-0.023267478340864182,0.1830443083969876,0.4560680898614228
1639510003414652000,7.33565185546875,0.009115618869662284,-0.11701381139485165,0.4762865558952093
1639510003424671700,7.345671630859375,0.1252262160807848,-0.28335663063675165,0.2626838449642062
1639510003434691600,7.355691650390625,0.2190191830217838,-0.23228494384083895,0.012736512780562042
1639510003444713000,7.365712890625,0.23426643651425838,-0.04602576505057514,-0.20959435207247734
1639510003454732500,7.375732666015625,0.23563012608289718,-0.18348003293313084,-0.4066485907193273
1639510003464752600,7.385752685546875,0.1865419777870178,-0.2935623828306794,-0.2941990732990205
1639510003474773800,7.395773681640625,0.030462942802906033,-0.2764555460114032,0.012427739092335105
1639510003484793600,7.405793701171875,-0.029577976661920545,-0.16532237188667057,0.16362579710185526
1639510003494815000,7.41581494140625,-0.04743628943562507,0.22548673506807534,0.18648827483840286
1639510003504834600,7.42583447265625,0.033738603472709655,0.5649303233794868,0.04997011876218021
1639510003514854700,7.435854736328125,0.14070961641669272,0.694062899249047,-0.4203347323749214
1639510003524875500,7.44587548828125,0.08725041342973709,0.4977226540904492,-1.0022874291606247
1639510003534895600,7.4558955078125,-0.012079144850373267,0.1824849392148666,-1.216265549275279
1639510003544915700,7.465915771484375,-0.04986380884349346,-0.08431039618877693,-0.9565015372805297
1639510003554936600,7.4759365234375,-0.06432663396000862,-0.24439757083570582,-0.4481086552895605
1639510003564956700,7.485956787109375,-0.05573416218161582,-0.19879753865022212,0.14705109439790248
1639510003574976800,7.495976806640625,-0.010250175857543944,-0.02162425944479182,0.608824702424556
1639510003584997600,7.50599755859375,0.0751595781415701,0.4339045176418498,0.843854524526745
1639510003595017700,7.516017822265625,0.16915478965640068,0.8853072825733572,0.4597279275432229
1639510003605038600,7.52603857421875,0.3080547263026237,0.6466106085266917,-0.2986493307061493
1639510003615058700,7.53605859375,0.34675708966255187,-0.05043013748936355,-0.7402696468897163
1639510003625078800,7.546078857421875,0.2290028168976307,-0.6204505505494773,-0.6480269050654024
1639510003635099600,7.556099609375,0.09155600166916847,-0.7313732967939227,-0.23562932236529885
1639510003645119700,7.56611962890625,0.011697452056407927,-0.6054482482613995,0.25713833966627714
1639510003655139600,7.5761396484375,-0.022128829699754715,-0.4908516358098015,0.7304362351395189
1639510003665160700,7.58616064453125,0.004723521390557289,-0.35818920531366016,1.2409933094270527
1639510003675180800,7.596180908203125,0.07232406245470047,-0.12984579303967766,1.4825420119039714
1639510003685200600,7.60620068359375,0.09352233330607414,0.04687217101315036,1.236859132231772
1639510003695221800,7.6162216796875,0.1088695400416851,0.09719648264101706,0.9481399516485631
1639510003705241600,7.62624169921875,0.14999825376570225,0.11996001178142614,0.7851809478923678
1639510003715261700,7.63626171875,0.17340484831631184,0.10676541650244034,0.7367002639703453
1639510003725282600,7.646282470703125,0.17218495113253593,0.08544751045992598,0.6987131362076848
1639510003735302400,7.656302490234375,0.1812836188673973,0.12463811399452387,0.6309507556453346
1639510003745323500,7.666323486328125,0.1940624364197254,0.2706578195180744,0.5481808486305176
1639510003755343400,7.67634326171875,0.21304887644052503,0.4234135918309912,0.3517681227575987
1639510003765363500,7.686363525390625,0.21045710638165474,0.4357712613618001,0.025655761716887354
1639510003775384300,7.69638427734375,0.2021919668614864,0.38954748952109364,-0.27889972429312765
1639510003785404400,7.706404296875,0.23006430864930152,0.3989318788621574,-0.4800584025841206
1639510003795424500,7.716424560546875,0.2556517543703318,0.3926261663140729,-0.6197456171505152
1639510003805445400,7.7264453125,0.2602747379958629,0.24417249337555838,-0.6904588834077119
1639510003815465500,7.736465576171875,0.24109365218579767,0.10654153548553585,-0.6753983846589923
1639510003825485600,7.746485595703125,0.19049217671751975,-0.04928867583665997,-0.6830791484199464
1639510003835506400,7.75650634765625,0.061460138612985604,-0.16671939746933057,-0.6265532513387501
1639510003845526500,7.766526611328125,-0.012562544453144073,-0.20942096826694906,-0.5137780090954155
1639510003855547400,7.77654736328125,-0.05891746839284896,-0.26839058697214346,-0.38954423811808225
1639510003865567500,7.7865673828125,-0.07617197005450725,-0.31257205759659407,-0.19025573761314152
1639510003875587600,7.796587646484375,-0.04878068978190422,-0.24989706330113112,0.06147182905077934
1639510003885608400,7.8066083984375,0.026454876205325124,-0.1994590712988749,0.21639044195339083
1639510003895628500,7.816628662109375,0.11100421398282051,-0.14977949644848704,0.253779311561957
1639510003905648400,7.8266484375,0.19181085810065268,-0.10651685770200565,0.26632841201163826
1639510003915669500,7.83666943359375,0.2181529215812683,-0.03227344455728307,0.27805918181575834
1639510003925689300,7.846689453125,0.22552608069777488,0.017800792166497558,0.23283253125362097
1639510003935709400,7.85670947265625,0.21763503518700597,0.06031979120513424,0.19824965897649524
1639510003945730600,7.86673046875,0.19261282213330266,0.11540182788725942,0.10232779024802148
1639510003955750400,7.87675048828125,0.1621089627981186,0.19520884824218226,0.06569375759474932
1639510003965771500,7.886771484375,0.13974983147382736,0.20915121141485868,0.10799356092475354
1639510003975791400,7.896791259765625,0.11405483372509478,0.1380121026947163,0.05214103306047618
1639510003985811500,7.9068115234375,0.11012509306073189,0.045185770562477405,-0.05360423748083412
1639510003995832300,7.916832275390625,0.07658288894295692,-0.0125755500651896,-0.09743380766138433
1639510004005852400,7.926852294921875,0.04113397442102432,-0.0343120194464922,-0.14912293223589657
1639510004015872500,7.93687255859375,0.04229249680638313,-0.04414742222437635,-0.1415533006992191
1639510004025893400,7.946893310546875,0.07346621822714805,-0.046967046222370114,-0.16385777922682462
1639510004035913500,7.95691357421875,0.09863689984083175,-0.037232272541057314,-0.13459734408147633
1639510004045934300,7.966934326171875,0.12382862424254416,-0.049386583253182466,-0.116333957638219
1639510004055954400,7.976954345703125,0.14623685540556908,-0.05192770083704963,-0.09170819655619561
1639510004065974500,7.986974609375,0.12308978857398033,-0.058976139777526256,-0.075214304003492
1639510004075995400,7.996995361328125,0.11379238339662551,-0.07343145744102075,-0.061008595453202724
1639510004086015500,8.007015380859375,0.09823650234639644,-0.0803184039431624,-0.03564187981076539
1639510004096035600,8.01703564453125,0.0898117883503437,-0.07075158897358924,-0.006537585075199604
1639510004106056400,8.027056396484374,0.09241524884700775,-0.06218494575619697,0.020894246403500436
1639510004116076500,8.03707666015625,0.09624152913689613,-0.06672068948969244,0.041367052524536846
1639510004126096400,8.047096435546875,0.10953004977703094,-0.03857977815987542,0.07257233812734484
1639510004136117500,8.057117431640625,0.12240823605060577,-0.013974731072317809,0.09755999132432043
1639510004146137600,8.0671376953125,0.14402034839987754,0.019933529878873375,0.0946076443247497
1639510004156158500,8.077158447265624,0.1463572669148445,0.050449499776959415,0.08273366665765643
1639510004166178600,8.087178466796875,0.14380056816935538,0.07514465456707403,0.05665288446173072
1639510004176198400,8.097198486328125,0.1396434484899044,0.0896906279223971,0.010770035013183951
1639510004186219500,8.107219482421876,0.11740239058732986,0.09609154447326436,-0.04980491826310753
1639510004196239400,8.1172392578125,0.09535188682079315,0.10911403458835557,-0.08730572381354867
1639510004206259500,8.127259521484374,0.07650047135651111,0.11640488571627065,-0.11009155611731111
1639510004216280600,8.137280517578125,0.05859013613462448,0.11930531986551358,-0.11643939077407121
1639510004226300400,8.147300537109375,0.057009004423022265,0.10976489971252158,-0.10819229836724698
1639510004236320500,8.157320556640625,0.060524903589487075,0.09808014274090528,-0.07865319241099059
1639510004246341400,8.16734130859375,0.06388239732384682,0.08368154196701943,-0.02042224497757852
1639510004256361500,8.177361572265625,0.08008417506217956,0.03871955195674673,0.030233517961204052
1639510004266381600,8.187381591796875,0.1062596498042345,0.018470234126970173,0.08114866248853504
1639510004276402400,8.19740234375,0.12343231840133666,0.010246120736934244,0.11186689522676169
1639510004286422500,8.207422607421876,0.1372995157122612,0.019128734568320215,0.13729388968907297
1639510004296443400,8.217443359375,0.13648644576370716,0.02348513967953622,0.08757979151457547
1639510004306463500,8.22746337890625,0.13894786744117735,0.03836180629394948,0.07333389708437026
1639510004316483600,8.237483642578125,0.1300321550577879,0.00006709215315058827,0.10888144967518747
1639510004326504400,8.24750439453125,0.10199205548763275,-0.053530587722733614,0.07637662578113377
1639510004336524500,8.257524658203126,0.02470189505815506,0.06374291578792035,-0.14087364787198603
1639510004346544400,8.26754443359375,0.012976970472931861,0.2080741385015659,-0.2256396971400827
1639510004356565500,8.2775654296875,0.08933715657591819,0.21575285643590614,0.07621712437048554
1639510004366585600,8.287585693359375,0.13984101688861847,0.14524713198216632,0.36726482096649704
1639510004376605400,8.29760546875,0.14679156667888163,0.03475094058671966,0.2579267135649919
1639510004386626600,8.30762646484375,0.07830956660509109,-0.00951780646238476,0.10046250783279538
1639510004396646400,8.317646484375,0.06572013414502144,-0.013041523609124124,-0.03223872030377388
1639510004406667500,8.32766748046875,0.0178898769557476,0.01673572021825239,-0.04445741975530982
1639510004416687600,8.3376875,0.02140752968788147,0.04427145046284422,0.06981734033077955
1639510004426707500,8.34770751953125,0.06909808614552021,0.062141691136360165,0.18664850690141319
1639510004436728600,8.357728515625,0.12424480382800102,0.04962157931914553,0.3268779385857284
1639510004446748400,8.36774853515625,0.20251813007593153,-0.0012775091225281357,0.4673655097495764
1639510004456768500,8.3777685546875,0.25899229696989057,-0.07122784644952043,0.559848270874843
1639510004466789400,8.387789306640625,0.3007417729407549,-0.11652657586717978,0.5107811653669924
1639510004476809500,8.3978095703125,0.27571079205870624,-0.10937962672198191,0.3713389385376125
1639510004486830600,8.40783056640625,0.21869652693867683,-0.06081784038776532,0.1628684759285301
1639510004496850400,8.417850341796875,0.16136077477931976,0.007739818738121539,-0.01887676910124719
1639510004506870500,8.42787060546875,0.08905892415642738,0.06572926729954778,-0.17945844926685095
1639510004516891400,8.437891357421876,0.012920271849632263,0.10680424154233187,-0.30462811285480856
1639510004526911500,8.447911376953124,-0.019215572601556777,0.0881720217866823,-0.3212721544679254
1639510004536931600,8.457931640625,-0.04320201286673546,0.041241636046580966,-0.22138949234969912
1639510004546952400,8.467952392578125,-0.02266658983826637,0.01071298933001235,-0.08967734831571579
1639510004556972500,8.47797265625,-0.022231121030449864,0.0009608626550994813,-0.013024535941705107
1639510004566992600,8.48799267578125,-0.03293196326494217,-0.01068476788252592,0.01597235289663076
1639510004577013500,8.498013427734374,-0.02847498385608196,-0.03132874758569523,0.0024566724371165036
1639510004587033600,8.50803369140625,-0.002470189505815506,-0.048616274734120814,-0.034952070915699004
1639510004597053400,8.518053466796875,0.05386135404706001,-0.039178492971695955,-0.06821304693929851
1639510004607074600,8.528074462890626,0.1191781680881977,-0.038644477426540105,-0.11590104611366986
1639510004617094400,8.538094482421876,0.18995558562278747,-0.021910364643484354,-0.13959047619365156
1639510004627115500,8.548115478515625,0.24355741195082664,0.00005434226943179965,-0.1403455323446542
1639510004637135600,8.558135498046875,0.2842465652137995,0.014206987191922963,-0.13758958470001817
1639510004647155500,8.568155517578125,0.28485855963230133,0.04915365128014237,-0.1264205404318869
1639510004657176600,8.578176513671876,0.2772399013221264,0.07501600495241582,-0.10473697028160095
1639510004667196400,8.588196533203124,0.2533364631652832,0.10362007681457325,-0.07191694295853376
1639510004677216500,8.598216552734375,0.21261399215459822,0.12415789272952824,-0.04119162289239466
1639510004687237400,8.6082373046875,0.16383797854781149,0.11003743304358794,0.00901661547459662
1639510004697257500,8.618257568359375,0.12906243324279784,0.07507885932186618,0.05551883893050253
1639510004707278600,8.628278564453124,0.09307575858235359,0.03686827980056405,0.08948730563633144
1639510004717298400,8.63829833984375,0.05229074372947216,-0.0014931429008953273,0.10876103816591202
1639510004727318500,8.648318603515625,0.024599603727459906,-0.03181671376572922,0.10791516192629932
1639510004737339600,8.658339599609375,0.01582125398814678,-0.03549284499520436,0.09439816629253327
1639510004747359700,8.66835986328125,0.011828384959697723,-0.022051417081989346,0.08501315589696168
1639510004757379800,8.6783798828125,0.02709258958697319,-0.006242602450307458,0.07580788598246872
1639510004767400700,8.688400634765625,0.04860416417121887,0.010996774707455187,0.07579824137128889
1639510004777420800,8.6984208984375,0.07022621339261531,0.02214304088819772,0.08465995854511857
1639510004787441000,8.70844091796875,0.10451719005107879,0.014396427083108574,0.0921422040592879
1639510004797461800,8.718461669921876,0.11514262896180152,0.018252956380788235,0.11361242371983825
1639510004807481900,8.72848193359375,0.11812719773054123,0.025670575693529096,0.13594452090673148
1639510004817502700,8.738502685546875,0.11931845334172247,0.016225176880229262,0.1392518918890506
1639510004827522800,8.748522705078125,0.1078150625526905,0.027481387975160032,0.120005193496868
1639510004837542700,8.758542724609375,0.1087602344483137,0.02672150951856747,0.09230879279784858
1639510004847563800,8.768563720703124,0.09939093307852745,0.021345351171866058,0.06693572047986089
1639510004857583900,8.778583984375,0.08945172286629677,0.014307744152657688,0.04412329243011772
1639510004867603700,8.788603759765625,0.09672551326155662,0.019422931741923093,0.03232946732714772
1639510004877624800,8.798624755859375,0.10594400798380374,0.017805559673160314,0.007124225856736302
1639510004887644700,8.808644775390626,0.11187748968601226,0.012434771621320395,0.010862024145573378
1639510004897664800,8.818664794921874,0.1194178220629692,0.012474372979346662,0.008795812330767512
1639510004907685600,8.828685546875,0.13005085975825786,0.016941398858185856,0.01371463709771633
1639510004917705700,8.838705810546875,0.1307633919417858,0.012022208765055983,0.02717982947900891
1639510004927726800,8.848726806640625,0.12994564581811427,0.004271886899229139,0.035162791056931014
1639510004937746700,8.85874658203125,0.1180453646659851,0.006487754584103823,0.03482128414288163
1639510004947766800,8.868766845703124,0.10105857402980327,0.011064615779276936,0.0395419559892267
1639510004957787600,8.87878759765625,0.09097206430137157,0.016283245476707814,0.027086159846186637
1639510004967807700,8.888807861328125,0.09291443054080009,0.014132953841332346,0.022273498867452144
1639510004977827800,8.898827880859375,0.08724339916706085,0.01670318792182952,0.02098053644746542
1639510004987848700,8.9088486328125,0.09461538923978804,0.012409527582209557,0.005261281529068946
1639510004997868800,8.918868896484375,0.10605097548961638,0.015451342963520437,-0.01573321037851274
1639510005007889000,8.928888916015625,0.10702946513295172,0.021297347311675548,-0.028031477872282266
1639510005017909800,8.93890966796875,0.10379238290786742,0.016880298054404556,-0.035518472626805304
1639510005027929900,8.948929931640626,0.10365911191701889,0.02513159171231091,-0.030049247435480354
1639510005037950700,8.95895068359375,0.10289338824152947,0.023165698466822503,-0.024584040832147002
1639510005047970800,8.968970703125,0.09642623805403709,0.014449216716270892,0.004124751779809594
1639510005057991000,8.978990966796875,0.09863222366571425,0.006701232938002795,0.026003917567431926
1639510005068011800,8.98901171875,0.09725509009361266,-0.007212799189332872,0.04492167626619339
1639510005078032000,8.999031982421876,0.10052841267585753,-0.024735852126684037,0.061575362490490074
1639510005088051700,9.0090517578125,0.10349076961278915,-0.027624011316243556,0.0651312283411622
1639510005098072800,9.01907275390625,0.10644845037460327,-0.013732373683806509,0.06136296184882521
1639510005108092700,9.0290927734375,0.12511691048741339,-0.004398910812381655,0.059576224562525745
1639510005118113800,9.03911376953125,0.12868366305828094,0.013449154561944305,0.047265097587183114
1639510005128134000,9.0491337890625,0.12300737098753452,0.025116448942106216,0.022562764137610793
1639510005138153700,9.05915380859375,0.12542904517650605,0.02580883338674903,0.00901237769089639
1639510005148174800,9.0691748046875,0.12724690825343132,0.02563711181534454,0.00428235349431634
1639510005158194700,9.079194580078125,0.11245675087869167,0.022977573749888687,0.0013778642244637012
1639510005168214800,9.08921484375,0.1168038401722908,0.008688114172592758,0.014566212425753473
1639510005178235600,9.099235595703124,0.10812602819800377,-0.0055481721790507435,0.01829611966907978
1639510005188255700,9.109255859375,0.09194353968203067,-0.004791727788560092,0.01843297085650265
1639510005198275800,9.11927587890625,0.0952186158299446,0.0011150668361224233,0.013808452861011027
1639510005208296700,9.129296630859375,0.09144669607579707,0.013591723104100674,0.03519691252224147
1639510005218316800,9.13931689453125,0.09756371765136718,0.020375446693785486,0.03202390850931406
1639510005228337700,9.149337646484375,0.10834580842852592,0.01944391973102465,0.03295622092336416
1639510005238357800,9.159357666015625,0.10400748696327208,0.016214253627415746,0.0467505721937865
1639510005248377900,9.1693779296875,0.09729483758211135,0.00928118469491601,0.04370872027985751
1639510005258398700,9.179398681640626,0.09985504345893859,0.002605634187441319,0.04635784654915333
1639510005268418800,9.189418701171874,0.09807809691429138,0.0029537717716768383,0.05075805426947772
1639510005278439000,9.19943896484375,0.08893734360337256,0.013687986552808434,0.05106266323924064
1639510005288459800,9.209459716796875,0.102547351282835,0.017376429274585097,0.04934555712305009
1639510005298479900,9.21947998046875,0.10926935301423073,0.021618121964950113,0.04318221218772232
1639510005308499700,9.229499755859376,0.10612579429149627,0.015764098707120866,0.032425036656111475
1639510005318520800,9.239520751953124,0.11094926892518997,0.010001461793482304,0.015965192503482103
1639510005328541000,9.249541015625,0.11457564272880554,0.009417926284484564,0.010164616465941072
1639510005338561800,9.259561767578125,0.09966039766967295,0.010113872659392655,0.008388327508419752
1639510005348582000,9.269581787109376,0.09311784415841103,0.008071005187556147,0.009644757310301065
1639510005358601700,9.279601806640626,0.09554361000061035,0.006830741069186478,0.025218100951984523
1639510005368622800,9.289622802734375,0.09599836803078651,0.013771701047196983,0.039329628412798044
1639510005378642700,9.299642578125,0.0944914705991745,0.01913457978721708,0.05199139545671642
1639510005388662800,9.309662841796875,0.10165712444484233,0.007447630858514458,0.0521674826759845
1639510005398684000,9.319683837890626,0.1002899277448654,-0.0032501061034388838,0.04115238686054945
1639510005408703700,9.329703857421874,0.11330606118440627,-0.01096047955136746,0.0342162309218198
1639510005418723800,9.339723876953125,0.1157271508514881,-0.009660210607759654,0.013896058079227804
1639510005428744700,9.34974462890625,0.12160744106173514,-0.015104045629501342,-0.013531754811480641
1639510005438764800,9.359764892578125,0.12780278857052327,0.0027447321308776734,-0.017217165325954555
1639510005448785700,9.36978564453125,0.1335650053590536,0.007480820742063224,-0.024230916545540094
1639510005458805800,9.3798056640625,0.12899696679115294,-0.001354720810893923,-0.027310981578007338
1639510005468825900,9.389825927734375,0.12095745272040366,0.002918536061514169,-0.023548268043622374
1639510005478846700,9.3998466796875,0.13501988034248352,0.011642032074742018,-0.005561798845604061
1639510005488866800,9.40986669921875,0.12631401131749154,0.012051033000741153,0.02320420384630561
1639510005498887000,9.419886962890626,0.10814531742036342,0.016991996534261852,0.03526544771380722
1639510005508907800,9.42990771484375,0.10597732573151587,0.012704711136501281,0.047472748988494275
1639510005518928000,9.439927978515625,0.09246025703251361,-0.0008610190098173916,0.05773483447954058
1639510005528948700,9.44994873046875,0.08287643612921237,0.002512001087237149,0.0530194963954389
1639510005538968800,9.45996875,0.07854337536096573,-0.006361991046275943,0.03241502671875059
1639510005548989000,9.469989013671874,0.0923474443078041,-0.007127404194511472,0.018749270264059304
1639510005559009800,9.480009765625,0.08506313251852989,0.0007996442114003002,0.012666077892854809
1639510005569030000,9.49002978515625,0.08378069149255753,0.0002500657709315419,0.007140227143466472
1639510005579049700,9.5000498046875,0.08965747457146644,0.010634024075977504,0.0033903730906546113
1639510005589070800,9.51007080078125,0.10181552987694739,0.016606595679558814,0.015864143281802533
1639510005599090700,9.520090576171874,0.10992869370579719,0.018118114487361163,0.021226327902078627
1639510005609110800,9.53011083984375,0.11652969940602778,0.010451415784377605,0.02632737736813724
1639510005619132000,9.5401318359375,0.11367898615002632,0.008497085112519561,0.031172187050804493
1639510005629151700,9.55015185546875,0.11666589300632477,0.0022236308662220835,0.036930239120870824
1639510005639172900,9.5601728515625,0.1222059914767742,0.009989058969635516,0.04885558164902031
1639510005649192700,9.570192626953125,0.11412205374240875,0.0026283392095938322,0.04634476787187159
1639510005659212800,9.580212890625,0.11547229930758475,-0.00006670856066048145,0.04251688014678657
1639510005669234000,9.59023388671875,0.11711012964248657,0.005897186546120792,0.033901173623278734
1639510005679253800,9.600253662109376,0.11876257302463054,0.006339103361032903,0.01865318947844207
1639510005689273900,9.61027392578125,0.11204349390268326,-0.001860861968435347,0.016375380739569664
1639510005699294700,9.620294677734375,0.1060766944527626,-0.010980024502053857,0.007002499173209071
1639510005709314800,9.630314697265625,0.1002601171284914,-0.009817794055957346,0.010174188011884688
1639510005719335000,9.6403349609375,0.10058803390860557,0.0017185491546057165,-0.004268836425617337
1639510005729355800,9.650355712890626,0.10091595068871974,0.0047871429449878634,-0.010356851102411746
1639510005739376000,9.660376220703125,0.08372750000059605,0.00962110244007781,-0.006717033295333385
1639510005749397000,9.67039697265625,0.09004384354054927,0.0018644421650096774,-0.0022284166391938923
1639510005759417000,9.6804169921875,0.10173135872483254,0.00467343517113477,-0.0017407061874866485
1639510005769437200,9.690437255859376,0.11732055752277373,-0.0011490239046514034,0.008784560284391046
1639510005779458000,9.7004580078125,0.11913842059969901,-0.008534056122042237,0.016513839362189173
1639510005789478100,9.71047802734375,0.1272644439101219,-0.007941570121608675,0.01755224249921739
1639510005799498000,9.720498046875,0.1235480537354946,0.009475702620018274,0.016903861593082548
1639510005809519000,9.73051904296875,0.11263795266449451,0.015762345141451806,0.01937653531692922
1639510005819539000,9.7405390625,0.10380290430188178,0.019166947686858473,0.012760697373747824
1639510005829560000,9.75056005859375,0.09614566754698753,0.017478428344335405,0.027196269157156346
1639510005839580200,9.760580078125,0.08905190989375114,-0.014987689240835607,0.05437982496321201
1639510005849600000,9.77060009765625,0.08346972584724426,-0.02975115953804925,0.06511245057545602
1639510005859621000,9.78062109375,0.08000818721652031,-0.03161556517044082,0.08643997382968664
1639510005869641000,9.790640869140624,0.0946481224656105,-0.023904168809205293,0.09216901900097728
1639510005879661000,9.8006611328125,0.10390519563257694,-0.0017885273845866321,0.08182721933722495
1639510005889682200,9.81068212890625,0.11585399210155009,0.030554402212332934,0.060315790883451695
1639510005899702000,9.820701904296875,0.13183306699991226,0.04099295851513743,0.024504618920385836
1639510005909722000,9.83072216796875,0.13510112888514994,0.047569870953727514,-0.009562705050036311
1639510005919743000,9.840742919921874,0.13572481374144554,0.04559162968331948,-0.03857106513045728
1639510005929763000,9.85076318359375,0.12574176438748835,0.031145664370059965,-0.054018371239677065
1639510005939784000,9.860783935546875,0.11338672520518302,0.017660671309754253,-0.05368015226125717
1639510005949804000,9.870803955078125,0.11119710620641708,0.004529478389490396,-0.04546542775407433
1639510005959824100,9.88082421875,0.10837912617623806,-0.013942655433621257,-0.03373670377656817
1639510005969845000,9.890844970703125,0.09821370599269866,-0.025762363896518946,-0.021983429879695177
1639510005979865000,9.900864990234375,0.1080465332210064,-0.03632067412147298,-0.0222786134339869
1639510005989885200,9.91088525390625,0.08629062848687172,-0.03321143779344857,-0.004688450077176094
1639510005999906000,9.920906005859376,0.08977730155885219,-0.03065693100504577,0.012582125936448573
1639510006009926100,9.930926025390624,0.09641571666002273,-0.015806823603995143,0.029276144171133636
1639510006019946000,9.940946044921875,0.09186696731448173,-0.009509751020092517,0.026852351090312
1639510006029967000,9.950967041015625,0.09901917715668677,-0.00519521228922531,0.044666459396108985
1639510006039987200,9.9609873046875,0.10546879168748854,-0.005988079699967056,0.06192359140627086
1639510006050008000,9.971008056640626,0.10699556286334991,-0.011764818204194307,0.07110803772844373
1639510006060028200,9.981028076171874,0.10732640225291251,-0.004628737512882799,0.05489683457463979
1639510006070048000,9.991048095703125,0.11408815147280692,-0.009159932935424149,0.055204000827670095
1639510006080069000,10.001069091796875,0.10362520964741706,-0.001003843280300498,0.04553966203406453
1639510006090089000,10.0110888671875,0.11289338873028755,0.010221406420785933,0.026657997561991213
1639510006100109000,10.021109130859376,0.11003624573349952,0.01760132407164201,0.02131451764218509
1639510006110130200,10.031130126953125,0.10492284824252128,0.01766032424988225,0.01947246997207403
1639510006120150000,10.04114990234375,0.09804302560091017,0.012777630242239683,0.0243193985465914
1639510006130171100,10.051171142578125,0.09417699782252312,0.005739676163159311,0.0308528919685632
1639510006140191000,10.06119091796875,0.09627601592838764,0.00443843910517171,0.03130947662964463
1639510006150211000,10.071211181640624,0.08850245931744576,0.017597908271849153,0.043823578831180925
1639510006160232200,10.081232177734375,0.09867606280744075,0.025366624310892073,0.030520372078567743
1639510006170252000,10.091251953125,0.10181436083316803,0.026441103408299384,0.016322189247608185
1639510006180272000,10.101272216796875,0.10001403341293334,0.027046321026142683,-0.004350450294464826
1639510006190293000,10.11129296875,0.09630699558854103,0.014088183117844164,-0.021478402967005965
1639510006200313000,10.12131298828125,0.1003945571631193,0.008753434493765234,-0.030665041246265172
1639510006210333200,10.131333251953125,0.11272504642605781,0.0008137823346070945,-0.04213452976569533
1639510006220354000,10.14135400390625,0.12386837173104286,0.002921933594997972,-0.04624284186735749
1639510006230374100,10.1513740234375,0.11658522898554802,0.00912477029049769,-0.0312822963617742
1639510006240395000,10.16139501953125,0.12214344763457774,0.004206475246511399,-0.025668986524641512
1639510006250415000,10.1714150390625,0.12423311339020729,0.0006826850345358252,-0.0035587884601205586
1639510006260435200,10.181435302734375,0.12374562213420867,-0.01499979980373755,0.002660086054727435
1639510006270456000,10.1914560546875,0.12371171986460686,-0.02708846140112728,0.016806684828922152
1639510006280476200,10.20147607421875,0.12801146288514137,-0.02632176961125806,0.028618264784291386
1639510006290496000,10.21149609375,0.1279752225279808,-0.028888039902690798,0.048464317309111354
1639510006300517000,10.22151708984375,0.10638532201051712,-0.016975885649677364,0.052588630697503684
1639510006310537200,10.231537109375,0.10515198082327842,-0.005038396026007831,0.05216317182704806
1639510006320558000,10.24155810546875,0.09792729026675223,-0.005246211824100464,0.04746902266144752
1639510006330578200,10.251578125,0.0874327842593193,-0.0014042773073539138,0.03723864748291671
1639510006340598000,10.261597900390624,0.0824918207257986,-0.00002038520090281963,0.0206131644397974
1639510006350619100,10.271619140625,0.09402736021876335,0.0014546923203393816,0.01542429055981338
1639510006360639000,10.281638916015625,0.08746668652892112,0.0172032829310745,0.008738675316050649
1639510006370659000,10.2916591796875,0.09349018460214137,0.0067928750105202195,0.004259995532035828
1639510006380680200,10.30168017578125,0.09367956969439983,-0.004903499333653599,0.0025292992819100617
1639510006390700000,10.311699951171875,0.10090016859769821,-0.008105583310592919,0.021610212653130293
1639510006400720100,10.32172021484375,0.11246318061947821,-0.004631605323404073,0.018087883745878934
1639510006410741000,10.331740966796875,0.1162239944577217,-0.00611070143263787,0.029458295805007216
1639510006420761000,10.341760986328126,0.11846212877333163,0.004425689221452921,0.026484832952171564
1639510006430782000,10.351781982421874,0.11621464210748672,0.006569331920333207,0.02649009364917874
1639510006440802000,10.361802001953125,0.1257750821352005,0.02013345463145524,0.023357567777112124
1639510006450822100,10.371822265625,0.11843582528829574,0.01562174936067313,0.008033449656143783
1639510006460843000,10.381843017578126,0.11137947703599929,0.009566230447683483,0.007467705532163381
1639510006470863000,10.391863037109376,0.11256430290639399,0.008692735548783094,0.001610796197503805
1639510006480883200,10.40188330078125,0.10028057539463042,0.018815759629011154,0.004057970153912902
1639510006490904000,10.411904052734375,0.10462708016633987,0.018703768888209012,-0.0009636574003845453
1639510006500924200,10.421924072265625,0.10778642098009586,0.012454773229733108,-0.00989997418038547
1639510006510945000,10.431945068359376,0.10557926632463932,0.005372870411071926,-0.006706073509901761
1639510006520965000,10.441965087890624,0.11160217987596988,-0.0013207820086739957,-0.009370397348329425
1639510006530985200,10.451985107421875,0.09711597388386725,-0.011950184708461166,-0.0121414694968611
1639510006541006000,10.462006103515625,0.0987830303132534,-0.01833215909684077,-0.011957710427790879
1639510006551026200,10.472026123046875,0.09548749589920043,-0.024375877974182367,-0.002953662173822522
1639510006561046000,10.4820458984375,0.08426058396399021,-0.021850067557301373,0.0016924100663512943
1639510006571067100,10.492067138671874,0.09635492638349533,-0.0072361435323022305,0.010026157843321561
1639510006581087200,10.502087158203125,0.0958943231344223,0.007046703641116619,0.02003434163853526
1639510006591107000,10.512107177734375,0.09170154761970042,0.017963088322430848,0.027958631831780073
1639510006601128200,10.522128173828126,0.12105506787598132,0.02023159950999543,0.04229870735146105
1639510006611148000,10.53214794921875,0.12408756743967532,0.014052545548882335,0.035328429947420956
1639510006621169200,10.542169189453125,0.13415595698952673,0.005647668764460831,0.03316526056416332
1639510006631189000,10.55218896484375,0.12941080828905105,0.008058894624654204,0.023055735286325214
1639510006641209000,10.562208984375,0.12271978621780871,-0.0005327551698312164,0.026755831913277506
1639510006651230200,10.572230224609376,0.11510171242952347,0.002965389144234359,0.025541487687453627
1639510006661250000,10.58225,0.10926935301423073,0.006266184255294501,0.023863252276927233
1639510006671270100,10.592270263671875,0.09923077408075331,-0.001485343186929822,0.02344422314725816
1639510006681291000,10.602291015625,0.11463526396155356,-0.03332085298467427,0.04069740963466465
1639510006691311000,10.61231103515625,0.11656477071940899,-0.058074076371267436,0.016865283148363233
1639510006701332000,10.62233203125,0.1013140100955963,-0.08211219202475621,0.0027973025683313605
1639510006711352000,10.63235205078125,0.098076927870512,-0.09767983657801524,-0.017373086540028452
1639510006721372200,10.6423720703125,0.08216682655513285,-0.07132679504565895,-0.055896586201712485
1639510006731393000,10.65239306640625,0.06804711578786372,-0.0029957294835709033,-0.06347337813153862
1639510006741413000,10.6624130859375,0.06106967799067497,0.062417950794473286,-0.0760528737194836
1639510006751433200,10.67243310546875,0.07513678178787231,0.11580368668641894,-0.06551986233256757
1639510006761454000,10.6824541015625,0.09579261632561684,0.14694732349617406,-0.02805339744314551
1639510006771474200,10.69247412109375,0.09582418050765991,0.14161816436266525,0.012420797894895075
1639510006781495000,10.7024951171875,0.11338555616140365,0.0925928521699272,0.061479866226762526
1639510006791515100,10.71251513671875,0.14788988330960273,0.028367742355633524,0.1124853193860501
1639510006801535200,10.72253515625,0.15945932507216928,-0.01744576818374917,0.12759155697263777
1639510006811556000,10.73255615234375,0.15374562360048294,-0.06341189373526722,0.14134637995027005
1639510006821576200,10.742576171875,0.15262567965984344,-0.0812820430772379,0.14058883958123625
1639510006831596000,10.752595947265625,0.13844400957226752,-0.07961155258174986,0.10477284531258046
1639510006841617200,10.7626171875,0.1359223821401596,-0.06657567326212302,0.06839760972596705
1639510006851637200,10.77263720703125,0.11694412542581557,-0.03530437321839854,0.02564582484476268
1639510006861657000,10.782656982421875,0.10085632945597171,-0.01484371419288218,-0.009822963421419263
1639510006871678200,10.79267822265625,0.08695113822221756,0.0032173728776164353,-0.04278773297742009
1639510006881698000,10.802697998046876,0.08330372163057327,0.023716299820598214,-0.053954293027520174
1639510006891719200,10.81271923828125,0.07520926250219345,0.008737140946090221,-0.03403415235318243
1639510006901739000,10.822739013671875,0.07149404137134552,-0.0031871421361342072,-0.011704027927666902
1639510006911759000,10.832759033203125,0.06325812794566155,-0.006422890920657664,0.00984846318885684
1639510006921780200,10.8427802734375,0.08265139520168303,-0.008089216697681695,0.02529752286374569
1639510006931800000,10.852800048828126,0.10182020605206489,-0.028192093527782708,0.04308649672828614
1639510006941820200,10.862820068359374,0.10342997933626175,-0.010480514014698565,0.048456353198364374
1639510006951841000,10.872841064453125,0.10635258878469467,-0.013255020229332148,0.047567879926040765
1639510006961861000,10.882861083984375,0.12677461456656455,-0.013376783445477484,0.0344835766211152
1639510006971882000,10.892882080078126,0.13119243100881575,-0.00526778433509171,0.027984204664453862
1639510006981902000,10.902902099609374,0.13475158479511737,-0.0016852131405845283,0.01760287670791149
1639510006991922200,10.912922119140624,0.12471943560242651,0.01371058197710663,0.005431450464203953
1639510007001943000,10.922943115234375,0.12081950555443763,0.021009945205040275,0.0013361439745873211
1639510007011963100,10.932963134765625,0.11680033304095268,0.036641485307365655,-0.005967968493700027
1639510007021983200,10.942983154296876,0.10514145942926406,0.03945203094976023,-0.011042056887596845
1639510007032004000,10.953004150390624,0.0920037454366684,0.040216329853143544,-0.020414938453957438
1639510007042024200,10.963024169921875,0.08230769633054733,0.025964480606187133,-0.02906074785478413
1639510007052044000,10.9730439453125,0.0804091692328453,0.00883488396583125,-0.027330855322256684
1639510007062065200,10.983065185546875,0.09513561372160911,-0.011740304817445575,-0.02027779500558972
1639510007072085200,10.993085205078126,0.1022422308564186,-0.01814578794557601,-0.017724384195730088
1639510007082106000,11.003106201171875,0.11456804394423961,-0.02899182907072827,0.009884484350308776
1639510007092126200,11.013126220703125,0.12777063986659049,-0.023885865967534482,0.02019143189638853
1639510007102146000,11.02314599609375,0.13150924187302587,-0.0160708265687339,0.021143398858979343
1639510007112167200,11.033167236328126,0.13430734815895556,-0.0023928134206682443,0.02177592460885644
1639510007122187300,11.043187255859374,0.12556699234247207,0.006406652171909809,0.024465529019013044
1639510007132207000,11.05320703125,0.11532616883516311,0.01036618518633768,0.012727964147925376
1639510007142228200,11.063228271484375,0.1085468839585781,0.005779314053803682,0.011395400369912385
1639510007152248000,11.073248046875,0.09714753806591034,0.007258684157673269,0.020052388751879334
1639510007162269200,11.083269287109376,0.09552548982203006,-0.001700319378171116,0.017733663480728863
1639510007172289000,11.0932890625,0.08854103776216507,-0.02232964950148016,0.024680048552528023
1639510007182309000,11.10330908203125,0.0969838719367981,-0.021872991775162515,0.018211363995075225
1639510007192330200,11.113330322265625,0.0946481224656105,-0.022751930034160612,0.013614903050288557
1639510007202350000,11.12335009765625,0.09066285222172736,-0.021708814189396797,0.011052505216374993
1639510007212370200,11.1333701171875,0.10132570053339005,-0.012828757641278207,0.001050970357656479
1639510007222391000,11.14339111328125,0.0961035819709301,-0.004234185237344354,0.010969356977567075
1639510007232411100,11.1534111328125,0.10598667808175086,-0.0014295578790828585,0.011272577707841992
1639510007242431200,11.16343115234375,0.11077040522694587,0.0010685790795832873,0.021904592489823696
1639510007252452000,11.1734521484375,0.11210194609165192,-0.0010003361489623783,0.02240114383511245
1639510007262472200,11.18347216796875,0.11657236950397491,-0.010242796268686651,0.04201199936456978
1639510007272493000,11.1934931640625,0.11489829881191253,-0.017998707625083623,0.05054558056257665
1639510007282513200,11.20351318359375,0.11787000809907912,-0.016033618097193537,0.054992476968839764
1639510007292533200,11.213533203125,0.1160498069345951,-0.0019430786254815756,0.05147190162725746
1639510007302554000,11.22355419921875,0.10705401505231857,0.013175689649116248,0.05877579489983618
1639510007312574200,11.23357421875,0.11077391235828399,0.019883553257305175,0.043621991844475266
1639510007322594000,11.243593994140625,0.09848492414951324,0.024268399011716246,0.025284298055991528
1639510007332615200,11.253615234375,0.1040028107881546,0.026026403393875807,0.011303411237522959
1639510007342635300,11.26363525390625,0.10161679243445396,0.0044999965666793285,-0.007308934773877263
1639510007352656100,11.27365625,0.09668693481683731,-0.01012795598367229,-0.006877119227871298
1639510007362676200,11.28367626953125,0.08444003218412399,-0.0010498926454223692,-0.025071824349090454
1639510007372696000,11.293696044921875,0.10107786325216293,-0.01473435380058363,-0.01987279440127313
1639510007382717200,11.30371728515625,0.09932546662688255,-0.014779818643815815,-0.017301482608541845
1639510007392737000,11.313737060546876,0.09948504110276699,-0.01165872748121619,-0.013698051289096473
1639510007402757000,11.323757080078124,0.10516367126107215,-0.014664192907512186,-0.003877718216180801
1639510007412778200,11.3337783203125,0.10212123482525348,-0.012077245154231786,-0.009088730862736701
1639510007422798000,11.343798095703125,0.10864216102659702,-0.014918131135962902,-0.004828662265464663
1639510007432819200,11.353819091796876,0.11651859349012374,0.001052449928689748,-0.011525967947021126
1639510007442839000,11.363839111328126,0.1101940666437149,0.011121168272104114,-0.0060632455617189406
1639510007452859100,11.373859130859374,0.10284428840279579,0.008504172440432011,-0.008804945485293864
1639510007462880300,11.38388037109375,0.11168693554997443,0.014807291172631083,-0.01821282529979944
1639510007472900000,11.393900146484375,0.11726795055270195,0.01594078871458769,-0.016827362290769813
1639510007482920200,11.403920166015626,0.11446575261354446,0.0024522154577076433,-0.01586640830412507
1639510007492941000,11.413941162109374,0.11284662697911262,0.013676789305359125,0.0011336802050471305
1639510007502961200,11.423961181640625,0.11975918284654617,0.009287650968320666,0.016050459634140132
1639510007512982000,11.43398193359375,0.11843114911317824,0.000352430166862905,0.017124737802147863
1639510007523002000,11.444002197265625,0.10930793145895004,0.0002453347968868911,0.027962065897881982
1639510007533022200,11.454022216796876,0.09492401679754256,-0.00021280250046402214,0.02785984763242304
1639510007543043000,11.46404296875,0.09490180496573447,0.011264339602459221,0.022105960280820725
1639510007553063200,11.474063232421875,0.09368599943518638,0.0007525901992805301,0.025434812442585823
1639510007563083000,11.4840830078125,0.08874620494544505,-0.014671791692078112,0.039412922782078384
1639510007573104000,11.494104248046876,0.08890285681188106,-0.01607440676530823,0.04728380228765309
1639510007583124200,11.504124267578124,0.07949673056304454,-0.02605038705766201,0.05394479454681277
1639510007593144000,11.51414404296875,0.07548924848735332,-0.016226309391390532,0.046923152281716465
1639510007603165200,11.524165283203125,0.08196282841563224,-0.008682469883095472,0.04959602475278079
1639510007613185300,11.534185302734375,0.11924538810551166,-0.00216852141181007,0.039871480204537506
1639510007623206100,11.5442060546875,0.13898410779833792,-0.0019261274906806646,0.02939180644005537
1639510007633226200,11.554226318359374,0.15526479599177836,-0.010410901110898702,0.005677534179762005
1639510007643245800,11.564245849609375,0.14447276834249495,-0.007016180638689548,-0.008051862095668912
1639510007653267200,11.57426708984375,0.1312953068614006,-0.009934314841404557,-0.011594503138586879
1639510007663287000,11.584287109375,0.1096013614475727,-0.003797255124803632,-0.028433482801914215
1639510007673307000,11.594306884765626,0.1059896006911993,0.0043207127433270215,-0.028240955904498696
1639510007683328300,11.604328369140624,0.09655366382598876,0.013619962817896156,-0.04148205720633268
1639510007693348000,11.61434814453125,0.0983469769835472,0.013209957244899123,-0.025931071526929736
1639510007703369200,11.624369140625,0.0982078607738018,0.022311090931482612,-0.018335501831397413
1639510007713389000,11.63438916015625,0.10958499483466148,0.012358053123299031,-0.015826222424209117
1639510007723409000,11.644408935546876,0.10463292538523673,0.008868055583070963,0.0038346097268164158
1639510007733430300,11.65443017578125,0.12151625564694404,0.001163947479147464,0.008533946524187923
1639510007743450600,11.66445068359375,0.11877952415943145,-0.01569203811790794,0.018939093747735024
1639510007753470700,11.674470703125,0.09660159462094306,-0.018263623905275014,0.041906054772064084
1639510007763491600,11.68449169921875,0.09445464572012424,-0.028529453989677128,0.03962481196708977
1639510007773511700,11.69451171875,0.08799450979530811,-0.021863840354327112,0.05272818529866635
1639510007783531800,11.70453173828125,0.07973930714726447,-0.014775142468698321,0.03678074764758348
1639510007793552600,11.714552734375,0.07883914343714714,-0.003054985390137881,0.020771496806666255
1639510007803572700,11.72457275390625,0.0950228009968996,0.012916618587821721,0.0012682663701474666
1639510007813593600,11.734593505859374,0.10269172818958759,0.011574483263865112,-0.010479746829718351
1639510007823613700,11.74461376953125,0.11861001281142235,0.022655648319143802,-0.00788293526954949
1639510007833633500,11.754633544921875,0.1267734455227852,0.024285478010680525,0.009479995202645659
1639510007843654700,11.764654541015625,0.13416764742732049,0.006050440879072994,0.023126608565449715
1639510007853674800,11.7746748046875,0.13959025699794292,-0.004168700519390404,0.029426731622964143
1639510007863694600,11.784694580078124,0.10934534085988998,-0.014795235408656298,0.0567412203323096
1639510007873715700,11.7947158203125,0.09792261409163475,-0.018930106723681093,0.06295242299735546
1639510007883735600,11.804735595703125,0.08318447916507721,-0.01929154218090698,0.06344488268941641
1639510007893756700,11.814756591796876,0.07891630032658577,-0.0017612375188618898,0.04651917459070682
1639510007903776800,11.82477685546875,0.0790145000040531,0.009096530576702207,0.02970014173686504
1639510007913796600,11.834796630859374,0.07438800924718379,0.0021668043787591157,0.01441949743144214
1639510007923817700,11.844817626953125,0.08585282159149646,-0.00000922448607161641,-0.004426803466305137
1639510007933837600,11.854837646484375,0.09839256969094276,-0.0016159472966566682,-0.029757936338707804
1639510007943857700,11.864857666015626,0.1209732348114252,0.001421776431426406,-0.03255129338428378
1639510007953878500,11.87487841796875,0.12795944043695925,0.013550295115169137,-0.04615341001823544
1639510007963898600,11.884898681640625,0.1408931562900543,0.011121223071031272,-0.03902933029197156
1639510007973919700,11.894919677734375,0.13070610879659653,-0.006384038481302559,-0.014571765383705497
1639510007983939600,11.904939697265625,0.127208329808712,-0.008797090972401202,-0.007800444617867469
1639510007993959700,11.914959716796876,0.10111527265310287,-0.007543802975676953,0.0019920506000518797
1639510008003980500,11.92498046875,0.09956044442653655,-0.0190435770355165,0.003606426994130015
1639510008014000600,11.935000732421875,0.09279051190018653,-0.01856764835314825,0.01980352855734527
1639510008024020700,11.945020751953125,0.09877250891923904,-0.019491284270398316,0.020482012340798973
1639510008034041600,11.95504150390625,0.11122633230090141,-0.016951171333529053,0.02027070767767727
1639510008044061700,11.965061767578124,0.1054272906333208,-0.004572623411472887,0.01807173632867634
1639510008054082600,11.97508251953125,0.11293722787201405,-0.0042199009836651384,0.024988968371227382
1639510008064102700,11.9851025390625,0.10558569606542587,0.017603990952763705,0.02082541895098984
1639510008074122800,11.995122802734375,0.10286299310326576,0.007270009269285947,0.016863821843639014
1639510008084143600,12.0051435546875,0.09024082741737365,0.0006767119514755905,0.014854600913077592
1639510008094163700,12.015163818359374,0.0959025064408779,-0.018025741762481628,0.011276596295833587
1639510008104183600,12.02518359375,0.09859481426477432,-0.029075415700953452,0.005643120453506708
1639510008114204700,12.03520458984375,0.10207739568352699,-0.016082297810818998,0.0012703121967613696
1639510008124224800,12.045224853515625,0.09690203887224197,-0.009248268806003034,0.0027372429441660643
1639510008134245600,12.05524560546875,0.1061070895910263,0.006380732279364019,-0.004487886003777385
1639510008144265700,12.065265625,0.11186579924821853,0.019743067074380814,-0.0028675913255661726
1639510008154285600,12.07528564453125,0.1301759474426508,0.03237001853324473,0.005385930822044611
1639510008164306700,12.085306640625,0.12989420789182185,0.03900257014920935,0.024624372842535377
1639510008174326800,12.095326904296876,0.13527706997394562,0.02253757489742711,0.02176722984574735
1639510008184346600,12.1053466796875,0.12506839517056942,0.012871683467552065,0.037073739244788885
1639510008194367700,12.11536767578125,0.12666413992941378,-0.004471281928848475,0.042403775161132216
1639510008204387600,12.1253876953125,0.10194354017078876,-0.03159052206072956,0.03643529521077871
1639510008214407700,12.13540771484375,0.07708557776808739,-0.03407550727687776,0.02980016804523766
1639510008224428500,12.145428466796876,0.07831424278020858,-0.02886820269105956,0.026055428558960557
1639510008234448600,12.15544873046875,0.08285247073173523,-0.013866448392253369,0.010532207669317721
1639510008244469800,12.1654697265625,0.09428688793778418,-0.013419051684625446,0.004063742307573556
1639510008254489600,12.175489501953125,0.09929039531350135,-0.0058553201657719905,0.0047651685751974576
1639510008264509700,12.185509765625,0.1117757828772068,0.015688056062534452,0.0002916033577173948
1639510008274530600,12.195530517578124,0.11809680259227752,0.016515866922494023,0.008970292114838957
1639510008284550700,12.205550537109374,0.12231354350447654,0.00779187771892175,0.016068141421303153
1639510008294570800,12.21557080078125,0.12200725403428077,0.0007008965446613729,0.0171634623773396
1639510008304591600,12.225591552734375,0.11510638860464095,-0.00855864257402718,0.020176818849146363
1639510008314611700,12.23561181640625,0.1013011506140232,-0.02059177459189668,0.026227862516418097
1639510008324632600,12.245632568359374,0.08945522999763489,-0.028603907465375958,0.018489011892676353
1639510008334652700,12.255652587890625,0.09590016835331916,-0.03492803245298564,0.013746128214523196
1639510008344672800,12.2656728515625,0.09547346737384796,-0.017379260552488267,0.010729337676614522
1639510008354693600,12.275693603515625,0.08622399299144744,-0.003639909138623625,0.01645502184703946
1639510008364713700,12.285713623046876,0.10122866989970207,0.005679141614958643,0.004227262306213378
1639510008374733600,12.295733642578124,0.10619184526503085,0.018529617897700516,-0.0002867810521274805
1639510008384754700,12.305754638671875,0.10799918694794178,0.029358835752215234,0.0017799422193318605
1639510008394774800,12.31577490234375,0.1337573130607605,0.028046730240341274,0.0013091829024255274
1639510008404795600,12.325795654296876,0.12821721459031105,0.031919571352005,-0.00036627602912485597
1639510008414815700,12.335815673828124,0.10831424424648284,0.02774453242337331,-0.007738777558505535
1639510008424835600,12.345835693359374,0.10111877978444099,0.020167831825092433,-0.004520473099127412
1639510008434856700,12.355856689453125,0.08524608787000179,0.006205302647221833,-0.0014670768778771162
1639510008444876500,12.36587646484375,0.06502922927141189,-0.015813856132980437,0.009994228335097432
1639510008454896600,12.375896728515626,0.05707154826521873,-0.038192294945940376,0.040435470762848855
1639510008464917800,12.385917724609374,0.06422609619498253,-0.04865034140050411,0.057927580572664734
