time,seconds_elapsed,z,y,x
1639426134265324800,0.05132470703125,0.06038169572651386,1.7135811569347976,0.3384679847449064
1639426134275345000,0.061344970703125,-0.21728198396563528,0.6174696350425481,0.028038346004486084
1639426134285365000,0.071364990234375,-0.5263648842722177,-0.47138183271884915,-0.29432635294049975
1639426134295384800,0.081384765625,-0.6493038661986589,-1.0530033247888089,-0.5607423701703548
1639426134305406000,0.091406005859375,-0.32699791170358655,-0.9454042430743574,-0.7699655508428812
1639426134315425800,0.10142578125,0.16504326268434524,-0.1914911246269941,-0.5322270543038845
1639426134325446000,0.11144580078125,0.593605359852314,0.3942667365953326,-0.16818565236330033
1639426134335466000,0.121466064453125,0.8032388748914003,0.3335243908628821,-0.06738251439929008
1639426134345485800,0.13148583984375,0.6987018110960721,0.04511164588034153,0.07060030740201473
1639426134355506000,0.141505859375,0.6806874309778214,-0.11445026278346776,0.288937937900424
1639426134365526000,0.151526123046875,0.6840402485370636,-0.06493395220339297,0.4136787085518241
1639426134375545900,0.1615458984375,0.46861996679008006,0.02223871981501579,0.39486411796659227
1639426134385566000,0.17156591796875,0.030085341662168502,0.10977847158014774,0.2872802338212728
1639426134395586000,0.1815859375,-0.24075521401166913,0.04675239882469177,-0.035007308234274385
1639426134405606100,0.191606201171875,-0.4184036912471056,0.08932342031151055,-0.23422610450387
1639426134415626000,0.2016259765625,-0.449065371492505,0.2443409635439515,-0.18826719414442777
1639426134425646000,0.21164599609375,-0.11254559820592402,0.24051146838366985,-0.144698393791914
1639426134435666000,0.221666015625,0.13335691556632517,0.5265653752803802,0.19326397951841354
1639426134445685800,0.231685791015625,0.1593365754753351,0.8506821785897016,0.423688353651762
1639426134455705900,0.241705810546875,-0.0969838719367981,0.6807666336938738,0.3895727335602045
1639426134465727000,0.25172705078125,-0.42038288236558435,0.36785014657378196,0.28798166008889675
1639426134475746800,0.261746826171875,-0.6723229227364063,0.07825608285218477,-0.03825812672376633
1639426134485767000,0.271766845703125,-0.7359919695705175,-0.05010667768865824,-0.2458721186339855
1639426134495787000,0.281787109375,-0.5664262610256672,0.04983984344601631,-0.10684650978147983
1639426134505806800,0.291806884765625,-0.35302316431999203,0.20092121627330778,0.14211480703949927
1639426134515827000,0.301826904296875,-0.39899464190006256,0.26780805611014363,0.10820610769689082
1639426134525847000,0.311846923828125,-0.5108879136770963,0.20508564247637986,0.015660218207538126
1639426134535867000,0.321866943359375,-0.6433773987591266,0.019028233335912227,-0.020340777239203453
1639426134545887000,0.331886962890625,-0.7291127314507961,-0.1917097358137369,-0.21631518476009368
1639426134555907000,0.341906982421875,-0.5206377387970685,-0.19599545030891893,-0.17776947326660156
1639426134565927000,0.351927001953125,-0.2541068630158901,-0.0834369926214218,0.2996235825657844
1639426134575947000,0.361947021484375,-0.03523673307597637,0.0027422844454646107,0.639051644514501
1639426134585967000,0.371967041015625,0.23473756115734576,0.03061608753800392,0.6515118976369499
1639426134595987000,0.381987060546875,0.45280221993327135,0.03148585610985756,0.6041100949928164
1639426134606008000,0.392008056640625,0.7554910352885723,0.06056318977326154,0.5287190461829304
1639426134616028000,0.40202783203125,1.019099301621318,0.0671092504158616,0.5631117296501994
1639426134626047700,0.4120478515625,0.9929413625359534,-0.05413140316009521,0.3094695615366101
1639426134636067800,0.42206787109375,0.6889023016154766,-0.2621431622162461,-0.10949643976837396
1639426134646088000,0.432087890625,0.21791560569405555,-0.47491029910594224,-0.5819233976259828
1639426134656107800,0.442107666015625,-0.15574527298510074,-0.6121320734068751,-1.0397998520836234
1639426134666128000,0.4521279296875,-0.5531599522173405,-0.6156137780427933,-1.20494277575016
1639426134676148000,0.46214794921875,-1.0279226595461368,-0.13795622605532407,-0.8010752671167254
1639426134686168000,0.47216796875,-1.026001336094737,0.27253829950243236,-0.41532647575885057
1639426134696188000,0.48218798828125,-0.918230112683773,0.2366328733846545,-0.2229939318716526
1639426134706208000,0.4922080078125,-0.6698153238296508,0.07209756022244691,0.11443828008472919
1639426134716228000,0.50222802734375,-0.17654022373259068,-0.07222557051628828,0.4165092558026314
1639426134726248000,0.512248046875,0.39392800616025925,-0.1093684294745326,0.5828183006390929
1639426134736268000,0.52226806640625,0.5108966815054417,-0.16693974395543335,0.5211483186677098
1639426134746288000,0.5322880859375,0.4184989683151245,-0.1486067994073033,0.18421587292701005
1639426134756308000,0.542307861328125,0.3517629351258278,-0.06524637915343046,-0.30365269195139405
1639426134766329000,0.5523291015625,0.24581951166391372,0.008377367722988128,-0.714720633482933
1639426134776349200,0.56234912109375,0.2021849525988102,-0.04249181877076626,-1.1885481057882308
1639426134786368800,0.57236865234375,0.4000228159040212,0.26941607582867144,-1.2940244962602854
1639426134796388900,0.582388916015625,-0.08240648052990436,0.6491653345108032,-1.644814202439785
1639426134806409000,0.592408935546875,-0.4928215111106634,0.665682169547677,-2.2489015010789037
1639426134816428800,0.6024287109375,-0.5506278033912182,0.2918950341403484,-2.2756591596230864
1639426134826449000,0.612448974609375,-0.4463584506213665,-0.5322352376103401,-1.2232505858570337
1639426134836469000,0.622468994140625,-0.20192367131412028,-1.2859352978289127,0.5937088202267885
1639426134846488800,0.63248876953125,0.35798867777287957,-1.2860790902137755,1.825391134342551
1639426134856509000,0.642509033203125,0.9199123666822909,-0.276819045561552,2.0027567029833793
1639426134866529000,0.652529052734375,0.5480740272551775,0.9016934039026498,1.8244558993190525
1639426134876549000,0.662549072265625,0.31031974862515926,1.6877309686243533,1.8290736222475765
1639426134886569000,0.67256884765625,0.14534955117702483,1.6743828267514704,2.4136872818708417
1639426134896589000,0.682589111328125,0.061924248993396755,1.1132271996051073,2.6845886278212068
1639426134906610000,0.69260986328125,0.19151216741502283,0.5571113201916218,2.234299267491698
1639426134916630000,0.702630126953125,0.42855683647096154,0.13035948731601238,1.6275824971318245
1639426134926650000,0.712650146484375,0.5390870032012463,0.35235739388763904,1.0360270555466413
1639426134936670000,0.722669921875,-0.01748188067674637,0.7692600329220295,0.7347983758717775
1639426134946690000,0.73268994140625,-0.5715741453081369,1.0047598106235265,1.0715104568600653
1639426134956710100,0.742710205078125,-0.8142875076502561,1.3456886325240134,0.85176705121696
1639426134966730200,0.752730224609375,-0.7741384526133537,1.3377742061376572,0.6348451327353716
1639426134976750000,0.76275,-0.4538602045536041,0.8471610187262296,0.6800795282125472
1639426134986770200,0.772770263671875,-0.3600789280503988,0.5007622409820557,0.991285996544361
1639426134996790300,0.782790283203125,-0.7634229973316192,0.5107417832046747,0.5300163925170898
1639426135006810000,0.79281005859375,-1.637398957747221,0.3400239820152521,-0.2670435014784336
1639426135016830000,0.802829833984375,-2.584875915442407,0.4420131148934364,-0.12481938884556293
1639426135026850000,0.81285009765625,-2.234312126973271,1.2094570383042096,-1.0475368760764598
1639426135036870000,0.822869873046875,-0.2696960618138313,1.4220833054184914,-1.5620090779811142
1639426135046891000,0.83289111328125,1.1762988650679587,1.1779349418371916,-0.04656242921054363
1639426135056911000,0.8429111328125,1.6156664338886737,0.5452256520867348,0.06402443614304065
1639426135066931000,0.852930908203125,1.0871250823602079,-0.419012763056159,1.0379676682204007
1639426135076951000,0.862950927734375,0.5771171663880348,-1.3253490243285893,1.9318927762091158
1639426135086971100,0.87297119140625,1.1996844168305396,-1.6622341237962246,1.7742150738567113
1639426135096991000,0.882990966796875,1.8727835846364498,-0.9918243412047624,0.22875965579152105
1639426135107011000,0.893010986328125,1.3640189467236399,-0.3463543540805578,-1.5511942539781332
1639426135117031200,0.90303125,0.44922406918555496,-0.6447539478093385,-2.494510292601585
1639426135127051000,0.913051025390625,-0.38811581275016066,-1.2429957352906464,-2.999037439075112
1639426135137071000,0.923071044921875,-0.5316144753634929,-0.9825625918626785,-3.5606606837332246
1639426135147091200,0.93309130859375,-0.23200725941061973,-0.563293223696947,-2.6180706212967633
1639426135157111000,0.943111083984375,0.6284814429223538,-0.1587134751409292,-0.9895797771483659
1639426135167131100,0.953131103515625,1.4511749598681927,0.493661469066143,0.45061610806584357
1639426135177151000,0.96315087890625,1.6363438957363365,1.2048527593791485,1.7557061882197855
1639426135187171000,0.973171142578125,0.10083557892888784,1.3101613920688628,2.4516578238248825
1639426135197191000,0.98319091796875,-1.3238599548146128,1.3558645741015671,2.5501971085101363
1639426135207212000,0.9932119140625,-1.6545187271133064,1.1844517763853073,2.1485236027896404
1639426135217232000,1.00323193359375,-1.5625034373693167,0.8895148903310298,1.6389625538021324
1639426135227252000,1.013251953125,-1.4388554303906858,0.7066977782860397,-0.4121019607543945
1639426135237272000,1.02327197265625,-1.024135396092385,1.012366193974018,-2.4216513926178216
1639426135247292200,1.033292236328125,-0.0035883433481678365,1.0277893885552882,-1.905144470015168
1639426135257312000,1.04331201171875,0.32467735980153084,0.6679577132642269,-0.2861146971732378
1639426135267332000,1.05333203125,0.021206435891520232,0.4909630237624049,1.386335700210929
1639426135277352200,1.063352294921875,-1.1892238130927084,0.3412666755527258,1.9399609318524598
1639426135287372000,1.0733720703125,-2.3018610839806497,0.7595514165952801,2.3409300886958837
1639426135297392000,1.08339208984375,-2.5380057354569434,1.4204527816072106,2.364150805285573
1639426135307412200,1.093412109375,-1.8430688298523425,1.444318518102169,1.2308499549448488
1639426135317432000,1.10343212890625,-1.3895548083879052,0.7144207737535238,0.2352589546829462
1639426135327452200,1.1134521484375,-0.9378548506081104,-0.6246881881192327,0.7248176646053791
1639426135337472000,1.123471923828125,1.6198948652386664,-2.090632262574136,-0.1990600985765457
1639426135347492000,1.1334921875,2.518703653615713,-3.540621227528155,-1.692983482325077
1639426135357513200,1.14351318359375,2.3825837030768393,-3.819430862385034,-1.7678361864745615
1639426135367533000,1.153532958984375,1.7874670618787407,-2.838744293527305,-1.5777777249991893
1639426135377553000,1.163552978515625,0.7095876545086502,-0.77145052870363,-0.25532208402454853
1639426135387573000,1.173572998046875,0.14722557418197393,0.7886728816613554,0.7517360666692257
1639426135397593000,1.183593017578125,0.23074001595377922,0.6253811388194561,0.9224936153471469
1639426135407613000,1.193613037109375,0.6334872883856296,0.26268063009381293,0.9621177697271108
1639426135417633000,1.203633056640625,1.6726462122172117,0.08539484869092702,1.136084928101301
1639426135427653000,1.213653076171875,2.1716116329103707,-0.4044885631412267,1.7687088776558637
1639426135437673200,1.223673095703125,1.7277455836266278,-0.8107771614417433,1.3573439990043639
1639426135447693000,1.233693115234375,1.1641016467958687,-0.19592267733365296,0.9090548725813626
1639426135457713200,1.243713134765625,0.751685213264823,0.511593431597948,0.6325573140591383
1639426135467733200,1.253733154296875,1.0624497830480337,0.2713318463221192,0.5556587832957506
1639426135477753000,1.263753173828125,1.515033976316452,-0.11005319686830044,0.7076268758296966
1639426135487773200,1.273773193359375,1.773836888194084,0.0559770310267806,0.989592636629939
1639426135497794000,1.2837939453125,2.375797403937578,0.19260259300023316,1.1258943734765052
1639426135507814100,1.293814208984375,3.222254658308625,-0.3037894700735807,1.273418346083164
1639426135517834200,1.303834228515625,2.624329681691527,-0.8346428979367018,1.7655109583973883
1639426135527854000,1.31385400390625,1.2908330067425966,-0.5433244946405291,1.7591507757157085
1639426135537874000,1.3238740234375,0.7466022109121084,-0.9728837861523032,-0.43892625479400155
1639426135547894000,1.33389404296875,-0.48043549226820464,-1.6830360888063907,-1.3558219040036201
1639426135557914000,1.3439140625,-1.7162316714435815,-1.2915551835373043,-1.088880109333992
1639426135567934000,1.353933837890625,-1.4932143586963413,-1.017827089728415,-0.784371092814207
1639426135577954000,1.3639541015625,0.44881694968938823,-1.5124652948722241,-0.5903893204152584
1639426135587974100,1.37397412109375,0.8520406074613333,-1.8376286846250294,-0.12034136664867401
1639426135597994000,1.383993896484375,-0.4697387416869402,-1.1179679643914102,-0.20921733545362947
1639426135608014000,1.39401416015625,-1.11549748262465,-0.38470103587061166,-0.40921676070690155
1639426135618034200,1.4040341796875,-0.4853133274376392,-0.4022615347415209,0.5927893672943115
1639426135628054000,1.414053955078125,0.6992103451400995,-0.4429676391392946,0.5497095195025206
1639426135638074000,1.42407421875,0.2792126626998186,-0.53798897883147,0.2558364632874727
1639426135648095200,1.43409521484375,-0.7323065590560436,-0.1451043442443013,-0.6774526868402958
1639426135658115000,1.444114990234375,-1.563205009767413,0.8405407238036393,-1.2921844213515519
1639426135668135200,1.45413525390625,-2.040303466567397,2.154249871481955,-0.9425953231334686
1639426135678155300,1.4641552734375,-1.2769120334178208,2.6521380183324217,-0.6411240668743848
1639426135688174800,1.4741748046875,0.6260013165444135,1.5522642212972044,-1.0548802245765925
1639426135698195000,1.48419482421875,0.3802788355141878,0.9695485042497515,-0.7514747853845357
1639426135708215000,1.494215087890625,-0.1407885268718004,0.6518748857304454,-0.34560675058364865
1639426135718235100,1.504235107421875,-0.1864332567155361,1.4109972632586956,-0.1569879665225744
1639426135728255000,1.5142548828125,0.28390228182077404,1.8062454121068119,-0.4519523251056671
1639426135738275000,1.524275146484375,0.833829243466258,1.2880322701081632,-0.5817179381817579
1639426135748295200,1.534295166015625,0.3966284972906112,0.9796019884914159,-0.18197510826289653
1639426135758315000,1.54431494140625,0.25210136841237546,0.9342810837745666,-0.07770400192737578
1639426135768335000,1.554335205078125,0.016669979771971703,1.8571482086092232,-0.28127602497041226
1639426135778355200,1.564355224609375,-0.5514630851715803,2.2799738079518077,-0.35667174995541573
1639426135788376000,1.5743759765625,-0.3202829242348671,1.7284236290186643,-0.6228256091177463
1639426135798396200,1.584396240234375,-0.5551005648910999,1.1638412422940134,-0.6194070328459144
1639426135808416300,1.594416259765625,0.5881821657598019,0.22962971662431955,-0.3967220207929611
1639426135818436000,1.60443603515625,1.6025836649537086,-0.25371201847940683,-0.2902969512939453
1639426135828456200,1.614456298828125,0.5159831909894943,-1.8707120390594005,0.15786182674765586
1639426135838476300,1.624476318359375,-0.13351064482331276,-1.626167661897838,0.5347165330320597
1639426135848495900,1.634495849609375,0.7903525053113698,0.061871349762380116,-0.04876373864710331
1639426135858516000,1.644515869140625,0.5458282941550016,0.1207099077001214,0.13156038753837346
1639426135868536000,1.6545361328125,0.5935778873234987,-0.02424772154986858,0.07915712334513664
1639426135878556000,1.664555908203125,0.27805530935823913,0.062114803129434584,-0.16197861441671849
1639426135888576000,1.674575927734375,0.24403145920336244,0.01782382598221302,-0.3451391330718994
1639426135898596000,1.68459619140625,0.34409166984558104,0.07927461224496364,-0.25562398958057164
1639426135908616200,1.6946162109375,0.6231576175510883,0.06120791741758585,0.1879109280526638
1639426135918635800,1.7046357421875,0.690693861207366,0.09683394207209348,0.24685440766960381
1639426135928656000,1.71465576171875,0.5525760148495436,0.17306085718423128,0.059738721647858616
1639426135938676700,1.7246767578125,0.34688860708773134,0.1873594316497445,0.05361731615811586
1639426135948696800,1.73469677734375,0.22250819418132303,0.1404644094839692,0.12109569214731454
1639426135958717000,1.744717041015625,0.32704058180153367,0.1043161145210266,0.24505232668370008
1639426135968736800,1.75473681640625,0.28276889387667176,0.11193068117797374,0.2525324533060193
1639426135978756900,1.7647568359375,0.2755044558316469,-0.12108838562369346,0.31770664400607346
1639426135988777000,1.77477685546875,0.270528420984745,-0.007122691486775874,0.3044166620612144
1639426135998797000,1.784797119140625,-0.09123217654228209,0.0865612621217966,0.34761166066527366
1639426136008817000,1.79481689453125,-0.09671031569242478,0.23076807300448415,0.26355039866566654
1639426136018837000,1.8048369140625,-0.17067454656958578,0.21817980958819388,0.030986674416065216
1639426136028857000,1.814857177734375,-0.08551087628602981,0.1031508701339364,-0.04943915369063615
1639426136038877000,1.824876953125,0.18660569067299365,0.10294102677553892,-0.13251374274045227
1639426136048897000,1.83489697265625,0.32687048593163487,0.04965191965848207,-0.11988690087944269
1639426136058917000,1.844917236328125,0.32654432271718975,0.06689823801368475,-0.16035861199945212
1639426136068938000,1.85493798828125,-0.046446109354496,0.03263590292781591,-0.15839666427671908
1639426136078958000,1.8649580078125,-0.28010055145025253,0.032274960660934444,-0.09627017070949077
1639426136088978200,1.874978271484375,-0.2504208679795265,-0.03669219258129597,0.004139584022760391
1639426136098997800,1.884997802734375,-0.007072714865207672,0.20794921521395443,0.040943712545931335
1639426136109017900,1.895017822265625,0.498786556994915,-1.654972900621593,0.14341975215822458
1639426136119038000,1.905037841796875,-0.9973837288975715,0.6047080608859657,0.1997419433608651
1639426136129057800,1.915057861328125,-1.1656786868542433,-0.4858186466112733,-1.0945838739335536
1639426136139078000,1.925077880859375,0.033500703063607216,-0.4989131059840321,-0.6661190996602178
1639426136149098000,1.935097900390625,0.29995968265235423,-0.3119482266098261,-0.1907403062596917
1639426136159117800,1.945117919921875,0.5924222875475883,-0.709039957498014,-0.07396364635527133
1639426136169138000,1.955137939453125,0.2895569465816021,-0.4447346488118171,0.08503156833648681
1639426136179158000,1.965157958984375,-0.16880466104447842,-0.2877142413243651,0.04554243851304054
1639426136189178000,1.97517822265625,-0.2582908707022667,-0.6830357476696371,0.047124739268422124
1639426136199198000,1.985197998046875,-0.2796399482011795,-1.5047805855885148,-0.18321663275659084
1639426136209219000,1.995218994140625,-0.36710663473010063,-1.7793065517768263,-0.29870822128653524
1639426136219239000,2.005239013671875,-0.2365823122411966,-1.9297844057530165,-0.04082943851649761
1639426136229259000,2.015259033203125,0.13947685975134372,-2.588329855288565,0.036412206596136094
1639426136239279000,2.025279052734375,0.47735213930010795,-4.246469403247535,0.6101958446472883
1639426136249299000,2.035298828125,0.5403448943078517,-6.496197418278455,1.0119237109035253
1639426136259319000,2.045319091796875,0.12207388952970503,-7.481717690902948,0.6003028116643429
1639426136269339000,2.0553388671875,0.03414893783926964,-7.297170101803541,0.33356033895909787
1639426136279359000,2.06535888671875,-1.915059130308032,-6.226942670491337,0.557108982104063
1639426136289378800,2.07537890625,0.3583399754285812,0.2373039045140147,1.4291349774956703
1639426136299399000,2.08539892578125,-1.6806208443582058,-3.5764483277127144,0.7329205993011594
1639426136309419000,2.0954189453125,-3.3328900389790532,-6.197893686139583,0.8778966409906744
1639426136319438800,2.10543896484375,1.1106564723342656,-2.3669269920006393,0.6995069899991154
1639426136329459000,2.115458984375,0.8270470359802246,-0.4546583691939711,0.5653416806593538
1639426136339479800,2.125479736328125,0.34927053378820416,2.2669854393020272,0.15770517488121985
1639426136349500000,2.1355,-0.3541489534795284,5.271346996009349,-0.7746750437080859
1639426136359520000,2.14552001953125,-0.6530395455956459,6.885055866089463,-1.435269534727931
1639426136369540000,2.1555400390625,-0.013840309303998946,8.378881634682417,-1.964343677958846
1639426136379560000,2.165559814453125,0.9188801010251044,8.629843769931792,-2.411081191025674
1639426136389580000,2.175580078125,0.5823883847892284,7.298826636838912,-1.802399550333619
1639426136399600000,2.18560009765625,0.6675824502110481,4.452880449108779,-0.9795239548191428
1639426136409620000,2.195619873046875,0.5256622889608145,1.3834756346046924,-0.10966098268032073
1639426136419640000,2.20564013671875,-0.046370121508836744,0.024148645089566705,0.32658407020568847
1639426136429660000,2.215659912109375,-0.22946225110292434,-0.27987492600083347,0.49793286277502774
1639426136439679700,2.2256796875,-0.025708441752195357,-0.03083352968096733,0.5259469511210918
1639426136449699800,2.235699951171875,0.2764309230268001,0.0057239306047558785,0.5798553591802716
1639426136459720000,2.245719970703125,0.5538000036865472,0.6102405605718493,0.25873481507748364
1639426136469740000,2.255739990234375,0.3414917164802551,0.670816609826684,-0.022145780834555626
1639426136479761000,2.265760986328125,0.30943653604984284,-0.04271744422018528,-0.11862550264149904
1639426136489781000,2.275781005859375,0.44163259114325043,-0.6652920011863112,-0.006498714369535446
1639426136499800800,2.28580078125,0.39707273392677306,-0.8909434618294239,0.22069588406234977
1639426136509821000,2.295821044921875,0.4644827208548784,0.05245616342425346,0.2531494161605835
1639426136519841000,2.305841064453125,0.7246352937757968,1.219018355114758,-0.1826417554780841
1639426136529860900,2.31586083984375,0.8720429465264081,1.047445398400724,-0.5617237824231386
1639426136539881000,2.325880859375,0.625935265570879,0.9672335053056478,-0.5896300264805555
1639426136549901000,2.335901123046875,0.40302316676378247,1.436183142441511,-0.6170756672888994
1639426136559921200,2.345921142578125,0.3392559202522039,1.6219070818439125,-0.6094537941083311
1639426136569941000,2.35594091796875,0.26993922291994094,1.4189879697516559,-0.5356038372606039
1639426136579961000,2.365961181640625,0.17707856839299202,1.1807307100355624,-0.4301382604435086
1639426136589981000,2.37598095703125,0.03922492592930794,0.5471300244033336,-0.29538901373595
1639426136600000800,2.386000732421875,0.0452174443423748,-0.06626081689298152,-0.106978611728549
1639426136610020900,2.396020751953125,-0.05936813476979732,-0.3229340232655406,0.013662906910479068
1639426136620041700,2.406041748046875,-0.1994260092794895,-0.14142010277360678,0.07746873186677694
1639426136630061800,2.416061767578125,-0.14591069219112396,0.3718450614288449,-0.009792787478864192
1639426136640082000,2.42608203125,-0.20115911668241024,0.6440224186643958,-0.09298048151433468
1639426136650102000,2.43610205078125,-0.2164057856529951,0.6724719758182763,-0.1312675420716405
1639426136660121900,2.446121826171875,-0.16189561230838298,0.3407055345386267,-0.13506898018121719
1639426136670142000,2.456141845703125,-0.04229015871882438,0.07224369069486856,-0.12326689870655536
1639426136680162000,2.466162109375,0.11261164917945861,-0.15798019243031738,-0.1653974829494953
1639426136690182000,2.476181884765625,0.21007541358768939,-0.6863195916458964,-0.11314765575230121
1639426136700202000,2.486201904296875,0.23303484889268875,-0.6946338310047984,0.021617665307223796
1639426136710222000,2.49622216796875,0.2666068636268377,-0.6301122589945792,0.05499386520832777
1639426136720242000,2.506241943359375,0.1951134067773819,-0.6281809986710548,0.055896659266948694
1639426136730262000,2.516261962890625,0.20016192233860491,-0.5239128149449825,0.03363952701240778
1639426136740282000,2.5262822265625,0.2573141346246004,-0.2475146251440048,-0.03397708840370178
1639426136750302000,2.536302001953125,0.20493863522112368,0.12338555665016174,-0.12072481300830841
1639426136760323000,2.546322998046875,0.0881517461836338,0.137445353923738,-0.0513762592330575
1639426136770343200,2.55634326171875,0.02601706930994987,-0.035701720239222044,-0.06633797378242015
1639426136780362800,2.56636279296875,0.034576807862520216,-0.43859746123105287,0.015057576139271259
1639426136790382800,2.5763828125,-0.009756254860758781,-0.39838644687384367,0.19995295576304195
1639426136800403000,2.58640283203125,0.022195465195178985,-0.20449556762874124,0.2169040905639529
1639426136810422800,2.5964228515625,-0.0359410819530487,0.022094050647318363,0.1504740545839071
1639426136820443000,2.60644287109375,0.01740589283108711,0.3374345500439405,0.08279343402087688
1639426136830463000,2.616462890625,0.04668693237304687,0.733810826139152,-0.012818565040826797
1639426136840483000,2.626483154296875,0.04089841209948063,0.8182856373757124,-0.03547375670224428
1639426136850503000,2.6365029296875,0.048266310518980025,0.9310799496456981,-0.08831278196424246
1639426136860523000,2.64652294921875,0.07075169857144355,0.808062349525094,-0.09941782108545302
1639426136870542600,2.65654248046875,-0.0209790751427412,0.4885539167940616,-0.07188128712326287
1639426136880562400,2.6665625,0.005231470912694931,0.2939060817018151,-0.12180325589478015
1639426136890582500,2.67658251953125,0.06466448761224747,0.23813801725059747,-0.09868629194051026
1639426136900602400,2.686602294921875,-0.03965864117145538,0.17613456554114817,-0.04227905280292034
1639426136910623500,2.69662353515625,-0.06784019503891468,-0.38408728788644075,-0.002056055746972561
1639426136920643600,2.7066435546875,-0.14692776027917862,-0.5786898225322366,0.06162468152493238
1639426136930663400,2.716663330078125,-0.12254209156334399,0.017231705307960508,0.026197102051973342
1639426136940683300,2.726683349609375,-0.04175707475543022,0.5974500525817275,-0.089977208045125
1639426136950703400,2.736703369140625,0.05222060110270977,0.6910360987737775,-0.22110621842890976
1639426136960723500,2.746723388671875,0.11764438264966011,0.3666419398277998,-0.35094869613349433
1639426136970743300,2.756743408203125,0.09466215099096298,-0.04395546158254146,-0.39597704764455555
1639426136980763400,2.766763427734375,0.008145897054672242,-0.27405396476238963,-0.39227351695150137
1639426136990783500,2.776783447265625,-0.10336918905973434,-0.2493231358706951,-0.3812342365428805
1639426137000803600,2.786803466796875,-0.165358904504776,-0.26688392700254915,-0.377775620521605
1639426137010823400,2.796823486328125,-0.18302490957677364,-0.17965104922950267,-0.3663236676588654
1639426137020843500,2.806843505859375,-0.11851765835285186,-0.04122340627014637,-0.4140104247242212
1639426137030863600,2.816863525390625,-0.0261205296844244,-0.11693389629274606,-0.4486632204324007
1639426137040883500,2.826883544921875,0.009493804532289504,-0.16052286265045404,-0.34665099893957374
1639426137050904600,2.836904541015625,0.015061960053443908,-0.34245530081540343,-0.13917436967343091
1639426137060924400,2.84692431640625,-0.013273907592892646,-0.3054015814453363,-0.00989654011428356
1639426137070944500,2.856944580078125,-0.012619827598333359,-0.2432406010866165,0.11902473109215497
1639426137080964600,2.866964599609375,0.06553074905276299,-0.06918839477747678,0.2577697694376111
1639426137090984400,2.876984375,0.16883680974841117,-0.12801058610230684,0.3101034755259752
1639426137101004300,2.88700439453125,0.20740707116127013,-0.2420794483527541,0.295965352319181
1639426137111024400,2.8970244140625,0.17313538372516632,-0.07840659723877906,0.279273452976346
1639426137121044500,2.90704443359375,0.1607400125324726,0.024774668033421036,0.17751228363513946
1639426137131064300,2.917064208984375,0.21296470528841016,0.003162555684149265,0.14053104497939348
1639426137141084400,2.92708447265625,0.24684710114598274,0.0839338362276554,0.1067497714087367
1639426137151104500,2.9371044921875,0.3207505417466163,0.03674158468097448,0.03140168495774269
1639426137161124400,2.947124267578125,0.33223230522572994,0.00029839842468500137,0.060766311129927635
1639426137171144400,2.95714453125,0.2620423321902752,0.2230310490116477,0.13984277045428753
1639426137181164500,2.96716455078125,0.2268447620809078,0.6897653481855988,0.09393032958507537
1639426137191184600,2.9771845703125,0.2360077272236347,0.8464791739419102,0.027827333602309226
1639426137201205500,2.98720556640625,0.2019663414120674,0.986822149003297,-0.03677811729907989
1639426137211225600,2.9972255859375,0.192750184777379,1.1574201232053338,-0.23508184455037115
1639426137221245400,3.007245361328125,0.14652093304395675,1.1151805256299674,-0.2791115404129028
1639426137231265500,3.017265625,0.04039513875246048,0.8139154594674706,0.028752047231793403
1639426137241285600,3.02728564453125,0.02779752298593521,0.5789908513054252,0.12450228572040796
1639426137251305200,3.03730517578125,0.036413375639915466,0.33928047017157076,0.15328852748274802
1639426137261325300,3.0473251953125,0.08570552207529544,0.06876651610359549,0.11601122848987579
1639426137271345400,3.057345458984375,0.07488835998475551,0.03925970498174429,0.08271072417348622
1639426137281365500,3.067365478515625,0.03544716095626354,0.0029136954896152017,0.01614683268070221
1639426137291385300,3.07738525390625,0.008250526472926139,0.07805997575819491,-0.032109833227097984
1639426137301405400,3.087405517578125,-0.0012537994533777237,0.07932473499700426,-0.04665449140816927
1639426137311425500,3.097425537109375,0.021680501410365104,0.18296587286591529,-0.07245148822665214
1639426137321445400,3.1074453125,0.05286649779081344,0.3136101684726775,-0.05729892728030681
1639426137331465500,3.117465576171875,0.10313654934763908,0.3657737786911428,-0.03809153798520565
1639426137341486300,3.127486328125,0.19148177227675914,0.29319413404017686,-0.1068693061351776
1639426137351506400,3.13750634765625,0.23609306741952896,0.03578837560936808,-0.1734647618100047
1639426137361526500,3.147526611328125,0.2688105111509561,-0.3980963778860867,-0.24923048915117976
1639426137371546600,3.157546630859375,0.26627251710593697,-1.1074072612799704,-0.3751037709638476
1639426137381566500,3.16756640625,0.017540332865715026,-0.8790504872009157,-0.35239246520102024
1639426137391586600,3.177586669921875,-0.09483400042653083,-0.553466533948481,-0.1901023006170988
1639426137401606700,3.187606689453125,-0.02527005033493042,-0.4170867634296417,-0.21009616411477325
1639426137411626200,3.197626220703125,-0.061599254822731014,-0.2621019534230232,-0.13452391351908444
1639426137421646300,3.207646240234375,-0.0978635773807764,-0.12176409292817116,0.019694880551099775
1639426137431666400,3.21766650390625,-0.05615267985463142,-0.12677271487042308,0.08624620482325554
1639426137441686300,3.227686279296875,0.054720016703009605,-0.09885331907048821,0.1503834536910057
1639426137451706400,3.237706298828125,0.2367752044647932,-0.07844283759593963,0.13806143999546766
1639426137461726500,3.2477265625,0.326814371830225,-0.26226883442252874,-0.028004151473939417
1639426137471746600,3.25774658203125,0.300364756321907,-0.4486202580735087,-0.19483049818277356
1639426137481766400,3.267766357421875,0.21631284667253492,-0.45199192646369335,-0.31432167774289843
1639426137491787500,3.27778759765625,0.0533867222726345,-0.3292899681635201,-0.36471418663561345
1639426137501807400,3.287807373046875,-0.11348141775131225,-0.18712401545867322,-0.2796294268071651
1639426137511827500,3.297827392578125,-0.25390052678883074,-0.08936185262575745,-0.11970628361552953
1639426137521847600,3.30784765625,-0.31784955960810185,0.017709551952779293,0.003925064489245415
1639426137531867400,3.317867431640625,-0.29794132856726646,0.15443272908180952,0.05912701949030161
1639426137541887500,3.327887451171875,-0.21592121700644493,0.19042656413540243,0.04500643194019794
1639426137551907600,3.337907470703125,-0.10690671553611755,0.18615794690549373,0.03340571825653314
1639426137561927700,3.347927734375,0.008562661162018776,0.14644538358971476,0.04829699791818857
1639426137571947300,3.357947265625,0.09902209976613521,0.10132043983638286,0.07297025140374898
1639426137581967400,3.36796728515625,0.18913667045533655,0.08850099801272153,0.09045534695088862
1639426137591987500,3.377987548828125,0.244839852976799,0.11104176951423286,0.10769728139191866
1639426137602007300,3.38800732421875,0.27545710955858227,0.1128930964693427,0.0804942171677947
1639426137612027400,3.39802734375,0.29767361754179,0.08914207239523529,0.04657002799510956
1639426137622047500,3.408047607421875,0.3123597300201654,0.08894041234329342,0.03342150034755468
1639426137632068400,3.418068359375,0.3019955723941326,0.08569996911734343,0.029172902992367744
1639426137642088400,3.42808837890625,0.25670973899066446,0.05492854488715529,-0.012364099271595477
1639426137652108500,3.438108642578125,0.22195932812690733,0.044565702435374256,-0.0012996844217181204
1639426137662128400,3.44812841796875,0.19931319655478,0.025872254011780022,0.02533142513334751
1639426137672148500,3.4581484375,0.16546061131358145,-0.020070435865223408,0.029693127474188803
1639426137682168600,3.46816845703125,0.14755319870114325,-0.034680852758884426,0.0640963323354721
1639426137692188400,3.4781884765625,0.1361363171517849,-0.022732640811800955,0.08269698790907859
1639426137702208500,3.48820849609375,0.12467208932936191,0.042770197320729494,0.08863806839585303
1639426137712228600,3.498228515625,0.10700257712602615,0.08600041336864232,0.05462357059121131
1639426137722248400,3.50824853515625,0.10104571454823016,0.08067980286777018,0.05769815573096275
1639426137732268300,3.518268310546875,0.08351298046708107,0.2526891051724553,0.013165771043300628
1639426137742288400,3.528288330078125,0.10390811824202537,0.12068170451894401,0.06789660140126944
1639426137752308500,3.53830859375,0.1362093823879957,-0.3678492697909474,0.34720483343005176
1639426137762328300,3.548328369140625,0.055025137129426,-0.06326689577400683,0.18982056106626988
1639426137772349400,3.558349365234375,0.0012017770051956176,-0.0623383827522397,-0.07222264790683984
1639426137782369300,3.568369384765625,-0.07350012049674988,-0.024434184032678604,-0.2810001306384802
1639426137792389400,3.578389404296875,-0.07750935613811015,0.027171353911608458,-0.3559387595057487
1639426137802409500,3.588409423828125,-0.039729368320107455,0.013372107270359992,-0.24783289731293914
1639426137812429300,3.59842919921875,-0.012749006935954094,-0.027590017715096473,-0.0825613788306713
1639426137822449400,3.608449462890625,0.02139700829386711,-0.054874915003776545,0.06037351242005825
1639426137832469500,3.618469482421875,0.014974866291880606,-0.04779255552738905,0.10361498051434755
1639426137842489600,3.628489501953125,0.016520342168211934,-0.034069881253689524,0.117137309910357
1639426137852509400,3.638509521484375,0.020422025781869888,0.03669745327830314,0.10762976911365985
1639426137862529500,3.648529541015625,0.02026069774031639,0.04006444549337029,0.12299041985273361
1639426137872550000,3.6585498046875,0.03897591960430145,0.0710348994269967,0.07666296844184398
1639426137882570000,3.668570068359375,0.07943535576462746,0.023335575141012668,0.08150660908073186
1639426137892590000,3.678590087890625,0.1158189207881689,0.037343496096879245,0.10539309610277414
1639426137902610200,3.688610107421875,0.1567629255950451,0.02245236256569624,0.11176321565657854
1639426137912629800,3.698629638671875,0.17796704166531563,0.02235591645389795,0.1364268245309591
1639426137922651100,3.708651123046875,0.17769816159605978,0.00469429529607296,0.12498422401845455
1639426137932670700,3.718670654296875,0.16016250490546224,-0.01862739745005965,0.08236877886801958
1639426137942690800,3.72869091796875,0.11027356162071228,0.009599602994322776,-0.02326835512369871
1639426137952711000,3.7387109375,0.06219196001887321,0.0033317747712135314,-0.09658610479086636
1639426137962731000,3.74873095703125,0.034878421157598496,0.0053669338606297965,-0.177708975251019
1639426137972750800,3.758750732421875,0.030974399456381797,0.006374941859394311,-0.21366320894658564
1639426137982771000,3.76877099609375,0.026355507484078406,-0.041548254310339684,-0.20750907023102044
1639426137992791000,3.778791015625,0.025969138514995573,-0.06730769559741019,-0.2101186682075262
1639426138002811000,3.788810791015625,0.03489595681428909,-0.037465515041351316,-0.22453297800719738
1639426138012831000,3.7988310546875,0.023925649988651276,-0.0308630480363965,-0.20413228727430105
1639426138022851000,3.80885107421875,-0.002513444125652313,-0.05168137965947389,-0.14409955111593006
1639426138032871000,3.818870849609375,-0.018788287100195884,-0.002578764446824789,-0.07992547736912965
1639426138042891000,3.82889111328125,-0.04036941978931427,0.042200288478285074,-0.044776714837551114
1639426138052911900,3.838911865234375,-0.03781213652193546,0.04128770367801189,-0.02746288420408964
1639426138062932000,3.848931884765625,-0.010044424152374267,0.03320917277112603,-0.023558277980983255
1639426138072952000,3.8589521484375,0.00020224457383155822,0.051772857335209845,-0.005323533110320568
1639426138082972200,3.86897216796875,0.04726911617517471,0.027531711656600236,0.019963760620355604
1639426138092992000,3.878991943359375,0.10121464137434959,-0.006752543000131845,0.02736731487512588
1639426138103011800,3.88901171875,0.14196750752329826,-0.02335617953762412,0.012792553816735743
1639426138113032000,3.899031982421875,0.14472645084261893,-0.03203910607844591,-0.010732114155590534
1639426138123051800,3.9090517578125,0.16804069093465804,-0.03112301414683461,-0.02203267584890127
1639426138133072000,3.91907177734375,0.17489245652556418,-0.045098640268296,-0.034867315241694445
1639426138143092000,3.929092041015625,0.17770985203385353,-0.0425737979657948,-0.030568449003994462
1639426138153111800,3.93911181640625,0.16608838782310484,-0.05625453279390931,-0.019140753799676894
1639426138163132000,3.9491318359375,0.13744681522846222,0.004080839572846889,-0.022731471768021583
1639426138173152000,3.959152099609375,0.08971300415098667,0.07711012768745422,-0.05282119734436273
1639426138183172000,3.969172119140625,0.056494040638208384,0.05074921337589621,-0.09262743029296398
1639426138193193000,3.97919287109375,0.04339373604655265,-0.02484510292112827,-0.09526508532017469
1639426138203213000,3.989213134765625,0.05036240601539611,-0.0683932988770306,-0.047832887537777424
1639426138213233000,3.99923291015625,0.0361111778229475,-0.05633578133657574,0.02946837880760431
1639426138223253000,4.0092529296875,0.027175591695308685,-0.035029812327027315,0.09586422025710344
1639426138233273000,4.019273193359375,0.0373135393500328,-0.0392732951156795,0.10835545303970574
1639426138243293000,4.02929296875,0.044047231519222255,-0.021048487117141485,0.07631547017842531
1639426138253313000,4.03931298828125,0.05718728359937667,-0.009184592452645302,0.014027356308698653
1639426138263332900,4.049332763671875,0.06266951440274715,-0.00852758984863758,-0.02542377959191799
1639426138273353000,4.05935302734375,0.0742529846906662,-0.007185235328972339,-0.03766425248384476
1639426138283372800,4.069372802734375,0.10864508363604546,-0.041584202406555415,-0.03556903377026319
1639426138293393000,4.079392822265625,0.10065700749158858,-0.04612506070658564,-0.059631754142045974
1639426138303413000,4.0894130859375,0.06975684231519699,-0.015141016639024018,-0.05893675761520862
1639426138313432800,4.099432861328125,0.06170096163153648,0.009425853862613439,-0.07250847911089658
1639426138323453000,4.109452880859375,0.02887888848185539,0.03747106799930334,-0.08378361410200595
1639426138333474000,4.11947412109375,0.03361234674453735,0.07778086655586958,-0.06594196020215749
1639426138343494000,4.129493896484375,0.060729486250877374,0.024956600471585988,-0.03081657854616642
1639426138353514000,4.139513916015625,0.09676233814060688,0.021484540446847677,0.004736380872130394
1639426138363534000,4.1495341796875,0.11653145297169684,-0.004550649041682482,0.042028000651299954
1639426138373554000,4.159553955078125,0.12451836007237434,-0.03734218092262745,0.07276216161102056
1639426138383574000,4.169573974609375,0.12368833898901939,-0.014906038839370011,0.08002718417793511
1639426138393594000,4.179593994140625,0.11217559584975242,0.18169088449403642,0.01845306379646063
1639426138403614000,4.189614013671875,0.09578443301916122,0.1070009696908295,-0.017525135296583175
1639426138413634000,4.199634033203125,0.07657236754894256,-0.11811243855282663,-0.0647086190149188
1639426138423654000,4.20965380859375,0.06354571271538734,-0.1564193728543818,0.0666413406431675
1639426138433674000,4.219674072265625,0.0717909784913063,-0.14251505840346215,0.05143441916108131
1639426138443693800,4.22969384765625,0.07376549343466758,0.161488054420799,0.02138356429040432
1639426138453714000,4.2397138671875,0.09351239643394947,0.1135762564279139,-0.012723580233752727
1639426138463734000,4.249734130859375,0.11871756483912467,0.19829758977144957,-0.033868367332220074
1639426138473753900,4.25975390625,0.1539642347872257,0.04678776239901781,-0.009174363319575786
1639426138483775000,4.26977490234375,0.18422610206007956,-0.1083659744337201,-0.036029929280281064
1639426138493794800,4.279794921875,0.1395300512433052,-0.0573953733921051,-0.09182166686803102
1639426138503815000,4.28981494140625,0.08939210163354873,-0.11124766734987497,-0.080635379204154
1639426138513835000,4.2998349609375,0.0138859020113945,-0.07511603126078843,-0.01326806237399578
1639426138523854800,4.309854736328125,-0.05310732080936432,0.04962736973911523,-0.04835603462904691
1639426138533875000,4.319875,-0.0403460389137268,0.06795563811212778,-0.07485007380098103
1639426138543895000,4.32989501953125,-0.007803951749205589,0.08211085858419537,-0.1707894051209092
1639426138553915100,4.3399150390625,0.06692074210643768,0.1079183767966926,-0.2625663560643792
1639426138563935000,4.34993505859375,0.1191220539867878,0.2346945987984538,-0.42482700229287146
1639426138573955000,4.359955078125,0.17986790685057638,0.040464989118278026,-0.27745383633375165
1639426138583975000,4.369974853515625,0.17714169675707817,-0.5845923245742917,0.06340747328847646
1639426138593994800,4.379994873046875,0.09207681067287922,-0.5225223834998906,-0.058090662179887294
1639426138604016000,4.39001611328125,0.06007949790954589,-0.30844299496784805,-0.38311815059334037
1639426138614036000,4.400035888671875,0.07173369534611701,-0.14964856354519723,-0.3927160000219941
1639426138624055800,4.410055908203125,0.0425683911383152,-0.0016546353392302988,-0.2371791090905666
1639426138634076000,4.420075927734375,0.06468319231271744,-0.01481894507780671,-0.06185615219324827
1639426138644096000,4.430095947265625,0.12291560105085372,-0.0477618681281805,0.1380070794597268
1639426138654115800,4.44011572265625,0.13720014699101446,-0.05870382564216852,0.28763708443492647
1639426138664136000,4.450135986328125,0.08582184193134307,-0.031927462397515774,0.2040083686336875
1639426138674156000,4.460156005859375,0.019942717832326887,0.031232465870678423,0.021930969040095803
1639426138684176000,4.47017578125,-0.016211130088567734,0.12583426497653125,-0.09891630130410194
1639426138694196000,4.480196044921875,0.027093174108862875,0.13960560069754718,-0.14781301868110894
1639426138704216000,4.490216064453125,0.12211831319332123,0.3733003748036921,-0.08686696707010269
1639426138714236000,4.50023583984375,0.17809505195915698,0.20399258654266594,0.00001315174251794815
1639426138724256000,4.510256103515625,0.20177286466658115,-0.049949879691749806,0.11153057594448328
1639426138734276000,4.520276123046875,0.21396306867599485,0.008137567617744207,0.3219087718710303
1639426138744297000,4.530296875,0.12085866852104662,0.016461013196408747,0.34119361031651496
1639426138754317000,4.540317138671875,0.035092356169223786,0.09924246451854705,0.24378332966119048
1639426138764337200,4.550337158203125,0.06262333717346191,0.2718358503215015,0.1109326100513339
1639426138774356700,4.560356689453125,0.2756932564020157,0.5760593278981745,-0.15229688609689473
1639426138784376800,4.570376953125,0.6078162560343742,0.43921325504183767,-0.5327765048801899
1639426138794397000,4.58039697265625,0.7943436207741499,0.25458178705126044,-0.9220976017668843
1639426138804416800,4.590416748046875,0.5919283665508032,0.06718626117482782,-1.2237155730202793
1639426138814436900,4.600436767578125,0.19299626849293708,-0.11328370322212576,-1.140508882023394
1639426138824457000,4.61045703125,-0.17779519222974777,-0.16911080438420176,-0.6319122941538691
1639426138834477000,4.62047705078125,-0.45409342878758907,-0.054972968550771474,-0.31347704361230133
1639426138844497000,4.630496826171875,-0.5377034398883581,0.09646014032363891,-0.2604261291652918
1639426138854517000,4.64051708984375,-0.44009822118282316,-0.018543226297944783,-0.11773001510649919
1639426138864537000,4.650537109375,-0.27071429894566534,-0.24801760623008012,-0.1584960329979658
1639426138874558200,4.66055810546875,-0.10613748472929001,-0.23289134876877068,-0.2497477910235524
1639426138884578300,4.670578369140625,0.16289456021785736,-0.18265096169784664,-0.32522651811689135
1639426138894598100,4.68059814453125,0.5050374340832233,-0.059494391497969625,-0.48245121600478885
1639426138904618200,4.6906181640625,0.7825263417303562,-0.03890051628053188,-0.5900152264058589
1639426138914638300,4.700638427734375,0.9599842648297547,-0.16216215429008007,-0.5921531152173877
1639426138924658200,4.710658203125,0.9319383200407028,-0.050409313897043465,-0.5079033449083566
1639426138934678300,4.72067822265625,0.6685124245375395,0.018368600383400917,-0.412688528470695
1639426138944698000,4.730697998046875,0.3612473873078823,-0.05958221591189503,-0.20998598173856733
1639426138954718200,4.74071826171875,0.07514788770377635,-0.023871435583382842,0.12352554964274168
1639426138964738000,4.750738037109375,0.009548749589920044,-0.11572685859054327,0.2826037664428353
1639426138974758100,4.760758056640625,0.08928338056206703,-0.20299451541602612,0.2496370241254568
1639426138984778200,4.7707783203125,0.2624152571558952,-0.17041238850206136,0.12407500021904706
1639426138994798000,4.780798095703125,0.4982528885096311,-0.42351855004280803,0.04553951590359211
1639426139004819200,4.790819091796875,0.9120727590978145,-0.4313716016307473,-0.17074176658689974
1639426139014839300,4.80083935546875,1.0604974799364804,-0.19278803256973623,-0.16042174036353826
1639426139024859100,4.810859130859375,0.733167559799552,-0.019616846878826616,-0.0036906712114810943
1639426139034879200,4.820879150390625,0.3606628654181957,0.12480039188414811,0.13425298762321472
1639426139044899300,4.8308994140625,0.1311123515099287,0.18438713784068822,0.2941395981967449
1639426139054919200,4.840919189453125,0.1824994243979454,0.21785013924241065,0.5214405796125531
1639426139064939300,4.850939208984375,0.31584055787324905,0.4393997175246477,0.6813163765311241
1639426139074959400,4.86095947265625,0.1409066002935171,0.5478574618950486,0.7701713025480509
1639426139084979200,4.870979248046875,-0.135395727917552,0.6002236089482903,0.8853530944764614
1639426139094999300,4.880999267578125,-0.19259996265172957,0.6599377806767821,0.975836498478055
1639426139105019100,4.89101904296875,-0.06994505836367607,0.7635852021560072,1.0301613783836363
1639426139115039200,4.901039306640625,-0.053495443344116204,0.8301762739166617,0.9545382743835449
1639426139125059000,4.91105908203125,-0.23178981726765632,0.8320736319705844,0.7854758391857147
1639426139135080200,4.921080078125,-0.35859658053815363,0.8082923588886857,0.6410550932914019
1639426139145100000,4.93110009765625,-0.2641138777673244,0.8310571484044194,0.5600906282633543
1639426139155120000,4.9411201171875,0.006390577819943428,0.8443725570514797,0.5697527750998735
1639426139165140200,4.95114013671875,0.24868191535770892,0.8290899399846792,0.6718178958237171
1639426139175160000,4.96116015625,0.24680209296047687,0.777082689371705,0.7740560350269079
1639426139185180200,4.97118017578125,0.1304500882089138,0.732499743540585,0.7866250092208386
1639426139195200300,4.9812001953125,0.13584113359749317,0.692652009537816,0.6508136862397194
1639426139205220000,4.99122021484375,0.26790391770005223,0.6727557611957192,0.41824820842444893
1639426139215240200,5.001240234375,0.4463303935706615,0.6125596511691809,0.25207038875222204
1639426139225260300,5.01126025390625,0.6179851833492517,0.467127974666655,0.22550912956297398
1639426139235280400,5.0212802734375,0.6441746866166591,0.36071079621315,0.27338030328452584
1639426139245300200,5.03130029296875,0.4506523484230041,0.31364947756975886,0.36743162890076636
1639426139255320300,5.0413203125,0.13176350889503954,0.3480284247726202,0.46102585839927196
1639426139265341200,5.051341064453125,0.036791561302542686,0.4030854183450341,0.5110755452036857
1639426139275361300,5.061361328125,0.10212240386903286,0.32037381738871334,0.5720218890756368
1639426139285381400,5.07138134765625,0.297459098008275,0.21915362305641173,0.5911427691310643
1639426139295401200,5.081401123046875,0.46536827151775356,0.14308335981070994,0.544919362616539
1639426139305421000,5.091421142578125,0.502042928442359,0.029937749885022638,0.477844306731224
1639426139315441200,5.101441162109375,0.5471247637063265,-0.08817717288583517,0.5037497323602438
1639426139325461200,5.111461181640625,0.709603144338727,-0.11287205368131399,0.5860328787714243
1639426139335481000,5.121481201171875,0.8570090435236692,-0.04465191941410303,0.6898895590871572
1639426139345501200,5.131501220703125,0.8394161036878823,0.08915916966050863,0.7349146957278251
1639426139355521300,5.141521240234375,0.7105658518910407,0.3553612518787384,0.6216396142035723
1639426139365541000,5.151541015625,0.46653322364389893,0.625325316978991,0.3444768697708845
1639426139375561200,5.161561279296875,0.21573767713308334,0.8365098608523607,0.1014800143122673
1639426139385581300,5.171581298828125,0.0033159926801919937,0.9729185652047395,-0.05240180288851261
1639426139395602200,5.181602294921875,-0.21970015102326867,1.0108791702866553,0.0780260734885931
1639426139405622300,5.191622314453125,-0.3255857068181038,0.9813967629536986,0.48627369690239425
1639426139415642400,5.201642333984375,-0.17908640108406543,0.851451701657474,0.7970207310289144
1639426139425662200,5.211662109375,0.09916413858532905,0.8668629135400057,1.0301952806532382
1639426139435682300,5.221682373046875,0.4928220956325531,0.9723585932344198,1.0836556526839733
1639426139445702400,5.231702392578125,0.7252069561839103,1.091649281786382,0.8994500088900327
1639426139455722000,5.241721923828125,0.9112304630547762,1.1127794558376074,0.7276257077634334
1639426139465742000,5.2517421875,0.7177443652182817,0.962816857907176,0.7757651770323515
1639426139475762200,5.26176220703125,-0.061875149154663085,0.7243862874507904,0.7797071926563978
1639426139485782300,5.2717822265625,-0.4010398839920759,0.5394371318131685,0.703247053310275
1639426139495802000,5.281802001953125,-0.4137058888196945,0.4823205753624439,0.7168675823837518
1639426139505822200,5.291822265625,-0.39702421860992904,0.44110009170174597,0.8103992680400609
1639426139515843000,5.301843017578125,-0.5067068286001682,0.4048784392416477,0.9552584053516388
1639426139525863200,5.31186328125,-0.5781254666477441,0.38433307934105393,1.0162059182673693
1639426139535883300,5.32188330078125,-0.45267420963943,0.3081564331114292,1.3002607603013514
1639426139545903000,5.331903076171875,-0.23491116415858268,0.2828378674596548,1.6147224310368298
1639426139555923200,5.341923095703125,-0.2181575977563858,0.37678690174520013,2.0192215155720707
1639426139565943300,5.351943359375,-0.20785773753821848,0.8397218086361885,2.345765253767371
1639426139575963100,5.361963134765625,-0.0009983633875846863,1.9648972201883792,2.6800428010851145
1639426139585983200,5.371983154296875,-0.1568859674528241,3.6166748319,3.4672651916772126
1639426139596003300,5.38200341796875,-0.3125689888566732,3.774980895283818,3.863897196099162
1639426139606023400,5.3920234375,0.13684446542114018,3.1690818710476156,3.168363493645191
1639426139616043000,5.40204296875,0.412628907237947,2.127274478533864,2.82210792376399
1639426139626063000,5.41206298828125,-0.07320318337678909,1.0425433055728672,2.4533190350353715
1639426139636083200,5.422083251953125,-0.6607610797584057,0.4117220215260982,1.8476362838983535
1639426139646104000,5.43210400390625,-1.576170582063496,-0.12520751138031483,1.1569792475700378
1639426139656124200,5.442124267578125,-2.736575127907097,-0.9238041134238243,0.5567454094886779
1639426139666144300,5.452144287109375,-3.404749114270508,-2.091643193182349,-0.2649637725949287
1639426139676164000,5.4621640625,-3.10710939899832,-3.526343988111615,-1.3293880705863237
1639426139686184200,5.47218408203125,-2.356603166384995,-4.9496308241009705,-2.632030757588148
1639426139696204300,5.482204345703125,-1.5918799001097679,-5.847187566590309,-3.982296196508407
1639426139706224000,5.49222412109375,-1.2094982470974325,-6.398391708564758,-5.182270536196231
1639426139716244200,5.502244140625,-1.1963202010944485,-6.119025901129842,-4.89310405023694
1639426139726264300,5.512264404296875,-1.3154255962073802,-5.079162043899298,-3.3322979183048007
1639426139736284200,5.5222841796875,-1.3651733774557708,-4.103603777840734,-1.9472832375645637
1639426139746304300,5.53230419921875,-1.2866799787163734,-3.521697623610496,-1.5269628990411757
1639426139756324400,5.542324462890625,-1.3075699142709374,-3.200651898309588,-1.686769430115819
1639426139766345200,5.55234521484375,-1.1550965025633573,-2.9219881016641853,-2.174655822911858
1639426139776365300,5.562365234375,-0.9544894668057561,-2.4078724581122395,-2.660550749629736
1639426139786385400,5.572385498046875,-0.8523264386653899,-1.7609300603479145,-2.7176123610228298
1639426139796405200,5.5824052734375,-0.7607016095437109,-1.3088327738136052,-2.3111054437965155
1639426139806425000,5.592425048828125,-0.9235220816120505,-1.0303829121798276,-1.7288637740015982
1639426139816445200,5.602445068359375,-1.3502277372583746,-0.9940963777899742,-1.113947330573201
1639426139826465000,5.612465087890625,-1.9192099663771687,-1.1758926223546267,-0.7179641454488038
1639426139836485000,5.622485107421875,-2.575649821935594,-1.0486883841991423,-0.015655249771475793
1639426139846505200,5.632505126953125,-3.0024641986533998,-0.5960650279641151,0.7236772623986005
1639426139856525000,5.642525146484375,-3.093032650589943,0.011833645656704903,1.083617074239254
1639426139866545200,5.652545166015625,-2.9338144407972693,0.7127414423644542,1.2683499567776917
1639426139876564500,5.662564453125,-2.3261706187203526,1.485585763514042,1.3988508983910084
1639426139886585600,5.672585693359375,-1.4993386867955325,2.378427167919278,1.6675836681306362
1639426139896605400,5.68260546875,-0.7448048061013222,3.000601035130024,1.8584049306720494
1639426139906625500,5.69262548828125,-0.03255991508215666,3.651549745926261,2.126338074466586
1639426139916645600,5.702645751953125,0.5871805875018239,4.205896277579665,1.9418828398257493
1639426139926665500,5.71266552734375,1.5675500532343982,4.504304054614901,1.3882260440021752
1639426139936685600,5.722685546875,2.7074343736186623,4.117706537473201,0.9806804313778876
1639426139946705700,5.73270556640625,3.666846099257469,3.277273950219154,0.7255816347151994
1639426139956725500,5.7427255859375,4.693692069482803,2.5019009873747824,0.5234200629919767
1639426139966745300,5.752745361328125,5.7170145417571065,1.9554910939395427,0.1049959134787321
1639426139976765400,5.762765380859375,6.388021121197939,1.3319266491532324,-0.5680494783133268
1639426139986785500,5.77278564453125,6.213344937771558,0.6347948638528585,-1.547677185767889
1639426139996805400,5.782805419921875,5.030138193011283,0.11857377245426177,-2.641657248589396
1639426140006826500,5.792826416015625,3.255216432189941,-0.48916708025634287,-3.060470689681172
1639426140016846300,5.802846435546875,1.5892963133573532,-0.9628928457528352,-2.0604501825392245
1639426140026866400,5.812866455078125,0.7516866745695472,-1.3697703498572111,-0.3981120138466358
1639426140036886500,5.822886474609375,0.08793781117200851,-1.4765192444831132,0.6376449925869703
1639426140046906400,5.83290625,-1.0370911776468157,-1.481872295948863,1.2479244238644838
1639426140056926500,5.842926513671875,-2.1368930784896016,-1.8128619076371193,1.7752549382984637
1639426140066946600,5.852946533203125,-2.7513796060681344,-2.0311936929166317,2.391865910685062
1639426140076966400,5.86296630859375,-2.7149089472830292,-1.745436723139882,3.0090374395638704
1639426140086986500,5.872986572265625,-2.5876608699858186,-0.968247650784254,3.393745197436213
1639426140097006600,5.883006591796875,-1.868329527837038,-0.05368424391448497,3.8453888949841257
1639426140107026700,5.893026611328125,-0.2049556228885427,0.6970452760607003,4.859656538665295
1639426140117046500,5.903046630859375,2.6487480836331843,1.432067523816228,5.856051841047406
1639426140127067600,5.913067626953125,4.66708346402049,1.6132032586455345,5.168011709219217
1639426140137087500,5.92308740234375,3.85688819411993,1.5600100131183863,2.9555191998660564
1639426140147107600,5.933107666015625,1.434945125079155,1.683897089549899,0.8757254344314336
1639426140157127400,5.94312744140625,0.147163907122612,1.2284487390220165,-0.16824001289904117
1639426140167147500,5.9531474609375,0.2259529278077185,1.7425749039679765,0.2510071434348822
1639426140177167400,5.96316748046875,0.31903175512999293,3.0983944698840378,1.0423018980324268
1639426140187187500,5.9731875,-0.4486233268134296,3.577477086238563,0.4202326602399349
1639426140197207600,5.98320751953125,-1.837830929198861,3.847790695428848,-2.107111395949125
1639426140207227400,5.993227294921875,-3.2810476235389707,4.334463620781898,-3.0151655670553446
1639426140217247500,6.00324755859375,-4.119915153433382,4.412413706424832,-1.530434959065914
1639426140227267600,6.013267578125,-2.9565611101344227,4.63253383642584,0.9584019640743732
1639426140237287400,6.023287353515625,-2.5837320061042903,4.493491568699479,1.411688168132305
1639426140247307500,6.0333076171875,-3.3363492395222183,4.202919307595491,-0.3541279106914997
1639426140257328400,6.043328369140625,-4.209984423676133,3.9650767661601303,-1.2266636091709135
1639426140267348500,6.053348388671875,-4.931168115693331,4.1065877620875835,0.029193945780396458
1639426140277368600,6.06336865234375,-5.658590994361043,4.466648569959402,1.9987118115067481
1639426140287388700,6.073388671875,-6.141906425979733,4.474519157204032,3.4371938785403966
1639426140297408500,6.083408447265625,-6.323668768274784,3.6320366516828533,3.2032454219341275
1639426140307428600,6.0934287109375,-4.486652078068256,1.5976953083902596,1.4602759656906128
1639426140317448400,6.103448486328125,-4.352394414269924,-0.3307258461855352,2.5118121405363083
1639426140327468300,6.11346826171875,-3.453891915363073,-2.083439136199653,3.953947469380498
1639426140337488400,6.12348828125,-1.7283716065704822,-2.6846137622624635,3.5482349174022674
1639426140347508500,6.133508544921875,-1.174161268517375,-3.0600226536527275,2.2898311850994824
1639426140357528600,6.143528564453125,-0.9617840077280998,-4.25080597114712,-0.664772068965435
1639426140367549400,6.153549560546875,-1.1656465381503105,-5.179478275129199,-2.325902615433931
1639426140377569500,6.163569580078125,-1.5135557204574346,-5.973785655546188,-3.1845249393731354
1639426140387589400,6.17358935546875,-0.8797820163458585,-6.909265009194612,-4.940111300605535
1639426140397609500,6.183609375,0.007791092267632484,-6.892731807544827,-4.621033368246257
1639426140407629600,6.193629638671875,0.8159341058135032,-6.234260884550213,-4.673948965875804
1639426140417649400,6.2036494140625,1.743006281122565,-4.818858372069895,-4.923626029750705
1639426140427669500,6.21366943359375,2.6698072382748124,-3.5770109300315376,-4.835206572541594
1639426140437689600,6.223689697265625,3.727876029759645,-2.091183320585638,-3.610349428270757
1639426140447709400,6.23370947265625,4.080504641804099,-0.6094686994165182,-0.9814242354825139
1639426140457729500,6.2437294921875,3.810498783388734,0.11489581459388136,0.5162377502724528
1639426140467749600,6.25374951171875,3.634498073360324,0.2965346766397357,0.7647273579284548
1639426140477769500,6.26376953125,3.717314888256788,0.6069220836736261,1.0881064946129917
1639426140487790600,6.27379052734375,4.023182918170094,1.0943496267862618,1.1500602619618177
1639426140497810700,6.283810791015625,4.081427017346024,1.4829583376199007,1.5294631914243102
1639426140507830300,6.293830322265625,3.7759336659640073,1.552889659719169,1.9231839845746754
1639426140517850400,6.303850341796875,3.2698651352673767,1.7168194082036614,1.9403677590876816
1639426140527870500,6.313870361328125,2.235910209819674,1.493852656599879,1.7674805049046873
1639426140537890600,6.323890625,1.3007196099847553,0.7220797640740871,1.3766151011854408
1639426140547910400,6.333910400390625,0.7034528050154447,0.3923771234564483,0.7388716166600584
1639426140557930500,6.343930419921875,0.23972294835448263,0.2012393423117697,0.1929828244894743
1639426140567950600,6.35395068359375,-0.7955401370823383,0.08370382686406373,-0.19020371516495943
1639426140577970400,6.363970458984375,-2.0135031379252673,-0.025469080038368702,-0.7006093982830643
1639426140587990500,6.373990478515625,-3.169493374457955,-0.0605892009973526,-1.117226206113398
1639426140598010600,6.3840107421875,-4.2635780666977166,-0.12033435238599777,-1.2116264912977814
1639426140608031500,6.394031494140625,-4.908097036707401,-0.48802550900578495,-1.320882984830439
1639426140618051600,6.404051513671875,-5.241429412129521,-0.6622463498800992,-1.6009814904540776
1639426140628071400,6.414071533203125,-5.68472496804893,-0.6936496422730386,-1.9686065961003303
1639426140638091500,6.424091552734375,-5.617775584369897,-0.6874963803403079,-1.9020871282711624
1639426140648111600,6.434111572265625,-5.034778127771616,-0.6168171624831855,-1.9432640650510786
1639426140658131700,6.444131591796875,-4.345229929468036,-0.6067527184560895,-1.8693840053260324
1639426140668151300,6.4541513671875,-3.8752562099814414,-0.6349830799013376,-1.6149264291763306
1639426140678171400,6.46417138671875,-3.510148055592179,-0.7281940091706812,-1.3479396263211965
1639426140688191500,6.47419140625,-3.0106518890231846,-0.72987933190912,-1.1131839449852705
1639426140698211300,6.48421142578125,-2.316061020377278,-0.6848498113542795,-0.8125362800687551
1639426140708231400,6.4942314453125,-1.3375965114831925,-0.5633168968334794,-0.6169488260388374
1639426140718251500,6.50425146484375,-0.5794423944652081,-0.5088149067953228,-0.43998131680488584
1639426140728272400,6.5142724609375,-0.26636545608639717,-0.5450894584864378,-0.2972328880369663
1639426140738292500,6.52429248046875,-0.11961655950546264,-0.5607236654698848,-0.2549865684598684
1639426140748312600,6.5343125,0.11265957997441291,-0.35549291543439027,-0.1216442659407854
1639426140758332400,6.54433251953125,0.3867185131728649,-0.20661212139129637,-0.00032791678011417387
1639426140768352500,6.5543525390625,0.6199561911612749,0.021722294725477695,0.13053601292669773
1639426140778372600,6.56437255859375,0.895381736537814,0.09360358184874057,0.25164719490408893
1639426140788392400,6.574392333984375,1.139662202066183,0.16533771558627486,0.3428472227424383
1639426140798412500,6.58441259765625,1.1228618739128111,0.2176566624969244,0.40857027949690816
1639426140808432600,6.5944326171875,1.0874486152261496,0.2439345747001469,0.43845513015091414
1639426140818452500,6.604452392578125,1.0724608894526957,0.15215294758155942,0.5180126509904861
1639426140828472300,6.614472412109375,1.1128162807166575,0.03497399048656225,0.5989607494056225
1639426140838493700,6.62449365234375,1.4135487013071775,0.05052198049128055,0.6884785232454538
1639426140848513500,6.634513427734375,1.6507050140440462,0.014622984114289283,0.694744597902894
1639426140858533400,6.644533447265625,1.502870075792074,0.015557926876842975,0.6650964786142111
1639426140868553500,6.654553466796875,1.2872288447707891,0.060780778046697376,0.560064909300208
1639426140878573300,6.6645732421875,1.0046230325013399,0.08807517381608486,0.2885194202274084
1639426140888593400,6.674593505859375,0.6860662014067173,0.191083859000355,0.07147066049575805
1639426140898613500,6.684613525390625,0.29941783086061474,0.28179771075695753,-0.10119944380521774
1639426140908633300,6.69463330078125,-0.0527028316617012,0.3313128522932529,-0.2052823340922594
1639426140918653400,6.7046533203125,-0.3140542589783668,0.3384247301250696,-0.24583178662359714
1639426140928673500,6.714673583984375,-0.48691141028404233,0.26503552265688773,-0.25748656858205793
1639426140938693600,6.724693603515625,-0.21594576692581174,0.2921550002507865,-0.058818099671602245
1639426140948713500,6.73471337890625,-0.11373977642655372,0.1720809062361717,-0.1004383963048458
1639426140958734600,6.744734619140625,-0.11457856533825397,0.20633783449456095,0.0906704510062933
1639426140968754400,6.75475439453125,-0.26907997574210163,0.2529594465464353,0.14488602531850336
1639426140978774500,6.7647744140625,-0.3530184881448746,0.24111235688626764,0.23397534461319444
1639426140988794600,6.774794677734375,-0.23509411951005457,0.18484364943653345,0.32305005086064337
1639426140998814500,6.784814453125,-0.10745148993730544,0.19345131878405808,0.48053193838000297
1639426141008834300,6.794834228515625,-0.11166413919627666,0.0776304982997477,0.47762160389125347
1639426141018854400,6.8048544921875,0.3089116353929043,0.032383389471471305,0.5966121404528617
1639426141028874500,6.81487451171875,0.7572668127894401,-0.05981193301454186,0.4663303945481777
1639426141038894300,6.824894287109375,0.9785603704839945,-0.11099690745919942,0.4901274497210979
1639426141048914400,6.83491455078125,1.2854828778862952,-0.16528627765998244,0.5312818824082612
1639426141058934500,6.8449345703125,1.55418408344388,-0.216534672729671,0.5968091243296861
1639426141068955400,6.854955322265625,1.4388883097469807,-0.19659823850765823,0.587422871825099
1639426141078975500,6.8649755859375,1.147640925860405,-0.18850670198872685,0.41847383387386794
1639426141088995600,6.87499560546875,0.7797597996264696,-0.20064955972507595,0.06787059017717838
1639426141099015400,6.885015380859375,0.5303969162672758,0.0021123159788548943,-0.3030763533681631
1639426141109035500,6.895035400390625,0.5525257459670305,0.007551438292860984,-0.7720692451238632
1639426141119055600,6.9050556640625,0.8404255729913711,-0.21247429142296312,-0.9291624255865811
1639426141129075500,6.915075439453125,1.1184037254601715,-0.545981292759627,-1.0235732321649789
1639426141139095600,6.925095458984375,1.266369012093544,-0.6944111281648278,-1.0858762513428926
1639426141149115600,6.93511572265625,1.4553694889485835,-0.8856010778881609,-1.0728367370277643
1639426141159135200,6.94513525390625,1.1451420947819948,-0.6915707901723682,-1.1164572675675153
1639426141169155300,6.9551552734375,0.39308980177044867,-0.3816680979155004,-1.541356750574708
1639426141179175400,6.965175537109375,0.033473230534791946,-0.44194516422376035,-1.514565774282813
1639426141189196300,6.9751962890625,-0.19233985041081905,-0.42328605646118517,-1.5415157405287025
1639426141199216400,6.98521630859375,-0.5555810418844223,-0.33150954390913245,-1.4572791219621897
1639426141209236500,6.995236572265625,-1.002183238133788,-0.2163281903721392,-1.4444354224801064
1639426141219256300,7.00525634765625,-1.3247908059239386,-0.20303601647019384,-1.287056995335221
1639426141229276400,7.0152763671875,-1.4006564865082503,-0.09788549695163964,-1.3311837218314408
1639426141239296500,7.025296630859375,-1.332207219660282,-0.16366612911224365,-1.0828887599647044
1639426141249316400,7.03531640625,-1.1350865647137165,-0.25099647591039537,-0.7222481063783168
1639426141259336400,7.04533642578125,-0.8914233543008565,-0.25023820488899945,-0.5326765516370534
1639426141269356500,7.0553564453125,-0.9656371760249137,-0.07498465996608138,-0.2831207760542631
1639426141279376400,7.06537646484375,-1.0712217030465603,0.07883461339250207,-0.08281681489646435
1639426141289396500,7.075396484375,-0.8442331485807895,0.2095440831899643,0.04289630791842937
1639426141299417600,7.08541748046875,-0.4887018008321523,0.2622749719023704,0.2570908472627401
1639426141309437400,7.0954375,-0.2277519400537014,0.2393392097339034,0.5846212584078312
1639426141319457500,7.10545751953125,0.0754945091843605,0.19863632020652294,0.8774614644438028
1639426141329477600,7.1154775390625,0.37909167155623436,0.3957476228028536,1.1330576892346143
1639426141339497500,7.12549755859375,0.49846565447747704,0.3479103513509035,1.1551815504983067
1639426141349517300,7.135517333984375,0.573200285205245,0.41072716526985165,1.2727791713967918
1639426141359537400,7.145537353515625,0.7609148139029741,0.38612361601963635,1.2450269488573074
1639426141369557500,7.1555576171875,1.0305395640462636,0.33608342769592997,1.2998358128875493
1639426141379577300,7.165577392578125,1.2037065119534731,0.35134273695237933,1.3955471806704998
1639426141389597400,7.175597412109375,1.2563041296750306,0.2439865240830928,1.4511971717000007
1639426141399617500,7.185617431640625,1.4511317052483559,0.18655096481107175,1.3776415216237305
1639426141409638400,7.195638427734375,1.6432126124620436,0.13096505199372768,1.2160349553897976
1639426141419658500,7.205658447265625,1.605951095560193,0.18285072205364702,1.0808183834314347
1639426141429678300,7.21567822265625,1.5147165809303522,0.17314831627197563,0.9255842748388647
1639426141439698400,7.225698486328125,1.3924778562277556,0.19370967745929954,0.8279252801194786
1639426141449718500,7.235718505859375,1.1790934642225503,0.24698519444242117,0.8370394376844167
1639426141459738400,7.24573828125,1.088532903331518,0.37658911415077745,0.8724301922783255
1639426141469758500,7.255758544921875,1.0540765069782734,0.4317659347105771,0.9118263831213116
1639426141479778600,7.265778564453125,1.0571411552459,0.4996366710182279,0.9162970987945794
1639426141489798700,7.275798583984375,1.0135352377533913,0.5679056859284639,0.9390344157814979
1639426141499818500,7.285818603515625,0.9367799148529767,0.583392958721891,0.8933984537661075
1639426141509838300,7.29583837890625,0.8226590301543474,0.6324379254631698,0.7566875515967607
1639426141519859500,7.305859375,0.6484148084044457,0.6668332392789423,0.613655921973288
1639426141529879300,7.31587939453125,0.4389280083596706,0.6539964079290628,0.4946078100055456
1639426141539899400,7.3258994140625,0.19964637403190136,0.6335553851857781,0.37272915078699587
1639426141549919500,7.33591943359375,-0.042781157106161115,0.5848452764220535,0.2606365570455789
1639426141559939300,7.345939208984375,-0.34669571486413475,0.5063415024191141,0.1372834413602948
1639426141569959400,7.35595947265625,-0.6141325995743274,0.46099400195628404,0.011913140633702277
1639426141579979500,7.3659794921875,-0.8449602938115597,0.4074611492112279,-0.11715455330610275
1639426141589999400,7.375999267578125,-1.019339540117979,0.2849059059053659,-0.3513105151832103
1639426141600019500,7.38601953125,-1.1683972981631756,0.1570201152265072,-0.5487409667313099
1639426141610039600,7.39603955078125,-1.317322954261303,-0.020496552322804926,-0.7132908929407596
1639426141620059400,7.406059326171875,-1.4176707496732472,-0.18373861080408097,-0.8165764953702688
1639426141630080500,7.41608056640625,-1.497698810634017,-0.33348902728855606,-0.9312538449078798
1639426141640100400,7.426100341796875,-1.3880740683108568,-0.480915969261527,-1.031119117499888
1639426141650120400,7.436120361328125,-1.179864448595047,-0.5127490313738584,-1.0190309125602244
1639426141660140500,7.446140625,-0.9281114552289247,-0.6407251306846737,-1.062421141475439
1639426141670160600,7.45616064453125,-0.7300514736056327,-0.6253031051471829,-1.0655676228076219
1639426141680180500,7.466180419921875,-0.6080559100091457,-0.6130030110225081,-1.0053928478300571
1639426141690200600,7.47620068359375,-0.4632026179164648,-0.5651160552099347,-0.9711106389999389
1639426141700220400,7.486220458984375,-0.2868202150940895,-0.4618228539958596,-0.895741802021861
1639426141710240300,7.496240234375,-0.15734277130961416,-0.3121186147406697,-0.7901017454206943
1639426141720260400,7.50626025390625,-0.016287702456116677,-0.1724488627657294,-0.6428729563683271
1639426141730280400,7.516280517578125,0.13369769182801247,-0.07824497693628073,-0.49183191555142397
1639426141740300500,7.526300537109375,0.27678046711683274,-0.010624562127888202,-0.3331786461651325
1639426141750321400,7.5363212890625,0.34088381371498105,0.04757657468914985,-0.17159984472095965
1639426141760341500,7.546341552734375,0.35911329788863655,0.08483896837383509,-0.05835457381308078
1639426141770361300,7.556361328125,0.41723815459907054,0.11440014003142714,0.05184709161520004
1639426141780381400,7.56638134765625,0.4873579850077629,0.14886545034348964,0.14252689497172832
1639426141790401500,7.576401611328125,0.5458148501515389,0.17466829238086937,0.23335165975689887
1639426141800421400,7.58642138671875,0.569895398440957,0.18559929010942577,0.2989022825539112
1639426141810441500,7.59644140625,0.6112345400452613,0.17894085513353347,0.3182008572638035
1639426141820461600,7.606461669921875,0.7074725620508193,0.14807152348682284,0.34620004030168056
1639426141830481400,7.6164814453125,0.7710515925139189,0.1131152147874236,0.32224984039366245
1639426141840501500,7.62650146484375,0.777431648939848,0.09264233560115098,0.310294029662013
1639426141850521600,7.636521484375,0.7299100193083286,0.0889578018695116,0.31568682861626146
1639426141860542500,7.64654248046875,0.6672346596866846,0.0991813819810748,0.31112521978914737
1639426141870562600,7.6565625,0.6156885968446731,0.10540054875686763,0.28988895501494405
1639426141880582700,7.666582763671875,0.5752671546071767,0.09233531547859311,0.27687866679430007
1639426141890602500,7.6766025390625,0.47377428081333633,0.07002864499390125,0.2505120533943176
1639426141900622600,7.68662255859375,0.2998603139311075,0.026960195378959176,0.21452187160253525
1639426141910642700,7.696642578125,0.13186346213817596,-0.025964754600822926,0.17307693153619766
1639426141920662500,7.70666259765625,0.006805003839731216,-0.06725625767111777,0.11463292587399482
1639426141930682600,7.7166826171875,-0.04558861574232578,-0.08901610792800783,0.06925356896817683
1639426141940702700,7.72670263671875,-0.03783025670051574,-0.11431187722608446,0.009556932896375655
1639426141950722600,7.73672265625,0.0031570027261972424,-0.10617226378172635,-0.0605892009973526
1639426141960742400,7.746742431640625,0.0323947876483202,-0.09500263499170541,-0.10250468118488788
1639426141970763800,7.756763671875,0.049964931130409236,-0.07575462142527103,-0.10880933428704738
1639426141980783400,7.766783447265625,0.039808278775215145,-0.049536768846213816,-0.0908142433911562
1639426141990803500,7.776803466796875,0.0046925417304039,-0.031911826436966655,-0.07028817271292209
1639426142000823600,7.786823486328125,-0.0179641112357378,-0.0223123695731163,-0.03718085288107395
1639426142010843400,7.796843505859375,-0.01310907242000103,-0.01030833578556776,-0.021456045004725456
1639426142020863500,7.806863525390625,-0.021137480574846268,0.001985328598320484,-0.012331658306717872
1639426142030883600,7.816883544921875,-0.023916297638416288,0.01620557713061571,-0.009601941081881523
1639426142040903700,7.826903564453125,-0.026797406032681464,0.032139936104416844,-0.011762333986163139
1639426142050923500,7.836923583984375,-0.034217326900362964,0.05042568050995469,-0.007360299634933471
1639426142060943600,7.846943603515625,-0.05405541531443596,0.06814706903100014,-0.0028700024783611298
1639426142070963700,7.856963623046875,-0.09810673848688602,0.0914731456913054,-0.0067763622671365735
1639426142080984600,7.866984619140625,-0.13105682193040846,0.10459010915681718,0.0040402153015136714
1639426142091004700,7.877004638671875,-0.17322247748672961,0.10785101064890623,0.014320786297321319
1639426142101024500,7.8870244140625,-0.17820494207441806,0.11383651479929685,0.022497078490257262
1639426142111044600,7.897044677734375,-0.16330840171575545,0.10801146190762519,0.03685235157907009
1639426142121064700,7.907064697265625,-0.15160393539667127,0.11211042165905237,0.05302490322291851
1639426142131084800,7.917084716796875,-0.12513736875355244,0.09758782917931676,0.05926292082965374
1639426142141104400,7.9271044921875,-0.09037935910522937,0.08698328692615032,0.0683230101197958
1639426142151124500,7.93712451171875,-0.07158990296125411,0.083393738001585,0.06343932973146438
1639426142161144600,7.94714453125,-0.04630465505719185,0.0837926741912961,0.06199146901071071
1639426142171164400,7.957164306640625,0.01000467666387558,0.0849409674435854,0.06367138492166996
1639426142181184500,7.9671845703125,0.0397755455493927,0.09159238815680146,0.05383037438690662
1639426142191205400,7.977205322265625,0.08001987765431404,0.09230404355749487,0.051768765681982035
1639426142201225500,7.9872255859375,0.12344283979535102,0.09271423179358243,0.06423369497954845
1639426142211245600,7.99724560546875,0.16497838075459004,0.09635960255861281,0.09020634062588215
1639426142221265700,8.007265625,0.195478732958436,0.09961392817944288,0.11386895576417445
1639426142231285500,8.017285400390625,0.22498247534036636,0.10765694938153028,0.13662088579833506
1639426142241305600,8.0273056640625,0.24553660306930541,0.12210720727741718,0.16430501153767108
1639426142251325700,8.03732568359375,0.25922961285710333,0.11374869038537144,0.17803484620451926
1639426142261345500,8.047345458984376,0.2548345927685499,0.11455752255022525,0.18457681519389152
1639426142271365600,8.05736572265625,0.25234862117171286,0.11055413212776183,0.16614333288073538
1639426142281385700,8.0673857421875,0.20833236931264398,0.09962401118203996,0.14835925438702105
1639426142291406600,8.077406494140625,0.16862404378056525,0.09264905760288238,0.11629004543125629
1639426142301426700,8.0874267578125,0.12916472457349298,0.08756313264071941,0.08907061459422111
1639426142311446800,8.09744677734375,0.08671148424744606,0.0627400954209268,0.07128595157861708
1639426142321466600,8.107466552734374,0.06423603306710719,0.05005114810913801,0.045698505857586856
1639426142331486500,8.117486572265625,0.020468787533044815,0.03521101411283016,0.026242694759368895
1639426142341506600,8.127506591796875,-0.003037175738811493,0.011542846016585825,0.0103740944981575
1639426142351526400,8.1375263671875,-0.022855974930524825,-0.006430325308442115,-0.015734160226583478
1639426142361546500,8.14754638671875,-0.020742343777418137,-0.017941607142984865,-0.025982582518458364
1639426142371566600,8.157566650390624,-0.011193594187498093,-0.029423662883043288,-0.040054947012662885
1639426142381586400,8.16758642578125,-0.0011059154152870177,-0.03304083046689629,-0.054960255199670786
1639426142391606500,8.1776064453125,-0.005447744011878967,-0.029887627132982014,-0.06023848786354065
1639426142401626600,8.187626708984375,0.017699322819709776,-0.036605975602567196,-0.07482055544555187
1639426142411647500,8.1976474609375,0.0316758257240057,-0.036660043877363206,-0.07303542559444903
1639426142421667600,8.20766748046875,0.06187573367655277,-0.03363236661925912,-0.06938742448091506
1639426142431687700,8.217687744140624,0.0696428605467081,-0.017143588633090255,-0.0710895522236824
1639426142441707500,8.22770751953125,0.07108721413612365,-0.007277005265653133,-0.04806815759837627
1639426142451727600,8.2377275390625,0.0873544583261013,-0.0026718495577573776,-0.03447802366316318
1639426142461747700,8.247747802734375,0.10693944876193999,0.008060849119722843,-0.013785364246368408
1639426142471767600,8.257767578125,0.11087854177653789,0.0276138369821012,0.006911971345543861
1639426142481787600,8.26778759765625,0.11851005956828593,0.04514145649671554,0.02747369785904884
1639426142491807500,8.277807373046874,0.12347791110873221,0.05439633770659565,0.04581190310418606
1639426142501827600,8.28782763671875,0.12094517776072025,0.058496320371329784,0.060409168255329125
1639426142511848700,8.2978486328125,0.11696399917006492,0.06136953772008419,0.0638262832224369
1639426142521868500,8.30786865234375,0.11396131022274493,0.061794485133886336,0.06604162118434906
1639426142531888400,8.317888427734376,0.10930559337139129,0.06320347514897584,0.08090192118585109
1639426142541908500,8.327908447265624,0.11090601430535316,0.06317629488110542,0.07853869918584823
1639426142551928600,8.337928466796875,0.11029635797441005,0.06399477165713906,0.08721125046312808
1639426142561948400,8.347948486328125,0.1030921256840229,0.054689913825690745,0.08959493072926998
1639426142571968500,8.357968505859375,0.09911153161525725,0.05432458764463663,0.09330255307555198
1639426142581988600,8.367988525390626,0.0778209063053131,0.049857963624596595,0.09410919328331947
1639426142592008700,8.3780087890625,0.07313771692514419,0.04155658374726772,0.0910620806723833
1639426142602028500,8.388028564453125,0.06989362043738365,0.043635289717465636,0.09252513896226883
1639426142612048600,8.398048583984375,0.056709729215502734,0.03232610632628202,0.09091945733129977
1639426142622069500,8.408069580078125,0.07508885099291801,0.0201034613519907,0.08239946626722812
1639426142632089600,8.418089599609376,0.08112520854771137,0.024012743750214574,0.066675827434659
1639426142642109700,8.428109619140624,0.0766319887816906,0.02245090126097202,0.06328852308392524
1639426142652129500,8.438129638671874,0.05528934102356434,0.030619302408397196,0.06747603790163993
1639426142662149600,8.448149658203125,0.05537234313189983,0.027875995049625634,0.05135901583731174
1639426142672169700,8.458169677734375,0.047751346734166145,0.038103812944889064,0.03872340614795684
1639426142682189600,8.468189453125,0.03774842363595962,0.038165187743306156,0.0252098445802927
1639426142692209400,8.47820947265625,0.03244856366217136,0.04384776342436671,0.02721592370569706
1639426142702229500,8.4882294921875,0.04743862752318382,0.037658261134475464,0.01765782176554203
1639426142712249600,8.49824951171875,0.05395078589618206,0.03423866194933653,0.01552373234629631
1639426142722270500,8.5082705078125,0.05928513266146183,0.03173588534817099,0.029362288084626195
1639426142732290600,8.51829052734375,0.06345803443193436,0.030322803679853676,0.02916998038291931
1639426142742310400,8.528310302734376,0.06745031893849372,0.03096504710614681,0.03117722855210304
1639426142752330500,8.53833056640625,0.09026187020540237,0.03053264703825116,0.04203998335003853
1639426142762350600,8.5483505859375,0.09144844964146613,0.02929331450164318,0.028563831183314323
1639426142772370700,8.55837060546875,0.0920598595380783,0.032061025649309155,0.025684476354718207
1639426142782390500,8.568390625,0.0915764599353075,0.02790770536214113,0.027536241701245308
1639426142792410600,8.57841064453125,0.08017711404263973,0.031459698755294085,0.016384148567914963
1639426142802430700,8.5884306640625,0.07802373540103436,0.03463189905062317,0.005911269870400428
1639426142812450600,8.598450439453124,0.07761281651258468,0.031320290284603834,0.009608955344557761
1639426142822470700,8.608470703125,0.08330898232758045,0.024390052630007264,0.020748188996315
1639426142832490800,8.61849072265625,0.08061024476289749,0.01752002073004842,0.010942834296822548
1639426142842511600,8.62851171875,0.07759411181211472,0.02291062772721052,0.018975918626785278
1639426142852531700,8.63853173828125,0.07574234646558761,0.035373949589580296,0.03667933309972286
1639426142862551800,8.6485517578125,0.07039630926251411,0.03705313484817743,0.048242345121502876
1639426142872571400,8.6585712890625,0.06256488498449325,0.03693067751228809,0.06513970390856266
1639426142882591500,8.668591552734375,0.07130524080097675,0.03854527310207486,0.05982523088753223
1639426142892611600,8.678611572265625,0.07654314145445823,0.03994038072228431,0.07294365565776824
1639426142902631400,8.68863134765625,0.07659691746830939,0.03728782038688659,0.07279869422912598
1639426142912651500,8.698651611328126,0.07178045709729194,0.04099588112458587,0.05770224738419055
1639426142922671600,8.708671630859374,0.07159457913637161,0.04156871257647872,0.06670680709481239
1639426142932691500,8.71869140625,0.0787491270661354,0.044425417181849475,0.07289397129714488
1639426142942712600,8.728712646484375,0.07796762129962444,0.030732991915941237,0.06605038901269436
1639426142952732700,8.738732666015625,0.08018880448043346,0.03390811482071876,0.05322013353407383
1639426142962752500,8.74875244140625,0.08731237275004386,0.02279080073982477,0.061820204097032545
1639426142972772600,8.758772705078124,0.08443652505278587,0.022744185119122264,0.04299392307400703
1639426142982792700,8.768792724609375,0.07747428482472896,0.02401668927296996,0.04389817843735218
1639426142992812500,8.7788125,0.08405541678071021,0.01924845195785165,0.03985679409205913
1639426143002832600,8.78883251953125,0.0783352855682373,0.01865750032737851,0.03343231400251388
1639426143012852700,8.798852783203126,0.0728536392867565,0.03774959267973899,0.030478724893927573
1639426143022872600,8.80887255859375,0.058165773242712014,0.03445902670174837,0.04079962790012359
1639426143032892400,8.818892333984374,0.06629413464069366,0.03384937037080526,0.04461480227410793
1639426143042913800,8.828913818359375,0.06141513042747974,0.028860037650913,0.04070084370076656
1639426143052933600,8.83893359375,0.05505377870202064,0.02056874077618122,0.037866497057676314
1639426143062953500,8.848953369140625,0.06253039819300174,0.01837882951647043,0.041812019813060756
1639426143072973600,8.8589736328125,0.07264671853780746,0.022718466155976055,0.04287234252095222
1639426143082993400,8.868993408203124,0.08572247321009635,0.020896949817240235,0.04779284778833389
1639426143093013500,8.879013427734375,0.0889449423879385,0.021206454157829284,0.047232291296124454
1639426143103033600,8.88903369140625,0.08851590332090854,0.01832198476269841,0.05382160655856132
1639426143113053400,8.899053466796875,0.08685995280742645,0.02300575866475701,0.04776362169384956
1639426143123073500,8.909073486328126,0.076526774841547,0.024687428141385314,0.03476970008611679
1639426143133093600,8.91909375,0.08108487653732299,0.030529870559275148,0.03780746034681797
1639426143143113700,8.92911376953125,0.08736614876389504,0.02811959454715252,0.039219665232300756
1639426143153134600,8.939134521484375,0.08421499125659465,0.029334815555810925,0.03963409125208855
1639426143163154700,8.94915478515625,0.0700391663879156,0.031135142976045607,0.024956162080168723
1639426143173174500,8.959174560546876,0.06806055979132652,0.03680588208884,0.0402373178422451
1639426143183194600,8.969194580078126,0.0662134706199169,0.03253565742373466,0.04360065679550171
1639426143193214700,8.979214599609374,0.07816226708889007,0.04989391172081232,0.04224807314276695
1639426143203234600,8.989234619140625,0.09266016351878642,0.040721448097378016,0.04938917706906795
1639426143213254700,8.999254638671875,0.10245441230237483,0.04061842611432075,0.04603343690037727
1639426143223274500,9.0092744140625,0.10914543437361716,0.038943770900368685,0.034656302839517594
1639426143233294600,9.019294677734376,0.0993143607109785,0.04051861900165677,0.04290332218110561
1639426143243314400,9.029314453125,0.09374503614604472,0.04727203878462315,0.025164836394786835
1639426143253334500,9.03933447265625,0.07082301024198531,0.04408844031244516,0.03626549160182476
1639426143263355400,9.04935546875,0.06991583226919174,0.03566182662025094,0.03312485548853874
1639426143273375500,9.05937548828125,0.06035188511013984,0.03455415763929486,0.04111877685189247
1639426143283395600,9.0693955078125,0.06471592553853989,0.030592414401471615,0.04989011232852936
1639426143293415400,9.07941552734375,0.06067337214946746,0.028556816920638082,0.055366497913002966
1639426143303435500,9.089435546875,0.06496493186354636,0.028788872110843657,0.055960372152924535
1639426143313455600,9.09945556640625,0.0629109219431877,0.030666794811934232,0.05985094985067844
1639426143323475700,9.109475830078125,0.06384966409802437,0.02300371283814311,0.05210895742177963
1639426143333495600,9.11949560546875,0.07493219912648201,0.028374738352000713,0.0444680872797966
1639426143343515600,9.129515625,0.07325228321552277,0.021654782447218895,0.0490080687969923
1639426143353536500,9.13953662109375,0.08224515248835086,0.02010711461380124,0.04301730394959449
1639426143363556600,9.149556640625,0.08079027750492096,0.021500030276924372,0.0403460389137268
1639426143373576700,9.15957666015625,0.0783610045313835,0.00959463455826044,0.038648587346076964
1639426143383596500,9.169596435546875,0.0775251382291317,0.009863514627516268,0.03392915760874748
1639426143393616600,9.17961669921875,0.08016308551728725,0.006730185037851333,0.041916649231314655
1639426143403636500,9.189636474609374,0.08502864572703837,0.0002653729379177093,0.033581367084383966
1639426143413656600,9.199656494140624,0.06451835713982582,0.00505202269256115,0.036302316480875015
1639426143423676400,9.209676513671875,0.07632862192094325,0.012307254517823458,0.03934124578535556
1639426143433696500,9.219696533203125,0.07162731236219405,0.019589082089066505,0.03990998558402061
1639426143443716600,9.229716552734375,0.0710895522236824,0.023414193335175512,0.04870470193624496
1639426143453736400,9.239736328125,0.07906827601790428,0.029723230351507663,0.04527180487811565
1639426143463757600,9.249757568359374,0.0832715729266405,0.027723434836417434,0.04616612336933613
1639426143473777400,9.25977734375,0.08448620941340923,0.029177871428430077,0.0390653514534235
1639426143483797500,9.269797607421875,0.09054594784379005,0.036988399048894643,0.044265842705965036
1639426143493817600,9.279817626953125,0.08687398133277893,0.0329044907361269,0.038333530047535896
1639426143503837700,9.289837646484376,0.0710720165669918,0.039490298867225646,0.03585106558203697
1639426143513857500,9.299857421875,0.06473930641412734,0.043711862085014576,0.042674774122238156
1639426143523877600,9.309877685546875,0.0708323625922203,0.04707373973354697,0.038999300479888914
1639426143533897700,9.319897705078125,0.06847673937678336,0.0421140714995563,0.03990530940890312
1639426143543917600,9.32991748046875,0.07716156561374664,0.03839168997555971,0.0365641822874546
1639426143553937700,9.339937744140625,0.08171440661251544,0.03987286844402552,0.04275952979624271
1639426143563958500,9.34995849609375,0.06601882483065127,0.03332651554048061,0.033655016842484474
1639426143573978600,9.359978515625,0.07218027006983757,0.02542187989577651,0.043189737907052037
1639426143583998700,9.369998779296875,0.08353051612377166,0.021090426562726496,0.042132337808609005
1639426143594018600,9.3800185546875,0.07294657826721668,0.0201304954893887,0.04339139795899391
1639426143604038400,9.390038330078125,0.07611176429986953,0.025692367400228976,0.04105740205347538
1639426143614058500,9.40005859375,0.08651040871739386,0.019041823469847438,0.04265957655310631
1639426143624078600,9.41007861328125,0.08759294325709342,0.01648147146254778,0.04984335057735443
1639426143634098400,9.420098388671875,0.08723463133871555,0.019497896674275397,0.054880175700783726
1639426143644118500,9.430118408203125,0.08182137411832809,0.016780162148177624,0.04312193336784839
1639426143654138600,9.440138671875,0.06695347533226013,0.019969898100197316,0.042754269099235534
1639426143664158500,9.450158447265625,0.08091711875498295,0.02244023373648524,0.04375029439926147
1639426143674179600,9.4601796875,0.07604395976066589,0.015320026467740534,0.043621699583530425
1639426143684199700,9.47019970703125,0.07577274160385132,0.02524813076406717,0.04411211344897747
1639426143694219500,9.480219482421875,0.06940496013760566,0.01320142687857151,0.044831659895181654
1639426143704239600,9.490239501953125,0.06713643068373203,0.012143880649656057,0.038245851764082905
1639426143714259700,9.500259765625,0.06275719268620014,0.01737301347479224,0.03752338270843029
1639426143724279600,9.510279541015626,0.05632452929019928,0.01869914751201868,0.030151392635703086
1639426143734299600,9.520299560546874,0.06974047570228577,0.02322933828756213,0.04070610439777374
1639426143744319700,9.53031982421875,0.0715384650349617,0.018382628908753394,0.04346913937032223
1639426143754339600,9.540339599609375,0.06096212596297264,0.02304360645711422,0.03909633111357689
1639426143764359400,9.550359375,0.06372866806685924,0.022336481101065873,0.03816986391842365
1639426143774380800,9.560380859375,0.05721943230330944,0.029480946028232573,0.04684533780515194
1639426143784400400,9.570400390625,0.0655471156656742,0.02085720232874155,0.04312719406485557
1639426143794420500,9.58042041015625,0.07950023769438266,0.02009016347900033,0.043971243673563004
1639426143804440600,9.590440673828125,0.09358546167016028,0.025793343556672333,0.05221592492759228
1639426143814460400,9.60046044921875,0.09636369421184063,0.021308014836162327,0.04608955100178718
1639426143824480500,9.61048046875,0.10284078127145767,0.029629122327268123,0.043293198281526564
1639426143834500600,9.62050048828125,0.10139876576960086,0.03496142326593399,0.04058277027904987
1639426143844520400,9.6305205078125,0.09230711229741573,0.028382044875621792,0.036384149545431135
1639426143854540500,9.64054052734375,0.08071078252792357,0.02534983757287264,0.03847556886672973
1639426143864560600,9.650560546875,0.07415127788186072,0.02557809337079525,0.041860535129904744
1639426143874580700,9.660580810546875,0.06740063457787036,0.027125907334685322,0.04082242425382137
1639426143884602000,9.67060205078125,0.06961304993033408,0.03371770681515336,0.04700666584670543
1639426143894622200,9.680622314453124,0.08690320742726325,0.02974427313953638,0.04006137675344944
1639426143904642000,9.69064208984375,0.08173018870353699,0.030570202569663522,0.04406476717591285
1639426143914662100,9.700662109375,0.08391980770230292,0.03190598121806979,0.044160044243931766
1639426143924682200,9.71068212890625,0.07527297538816928,0.026577333541214464,0.04039806136190891
1639426143934702000,9.7207021484375,0.08751753993332385,0.02318126136213541,0.02895487632751465
1639426143944722200,9.73072216796875,0.08019289613366126,0.02825637266933918,0.036034020933508874
1639426143954742300,9.7407421875,0.0856903245061636,0.014286153375357389,0.03667231883704662
1639426143964762000,9.75076220703125,0.07820669075250625,0.016155308248102664,0.042997430205345154
1639426143974783200,9.760783203125,0.06698854664564133,0.012017477791011333,0.049768531775474543
1639426143984803000,9.770802978515626,0.06296002178192138,0.013633242424577474,0.04692717086970806
1639426143994823200,9.7808232421875,0.061412207818031306,0.010688713405281304,0.04081716355681419
1639426144004843300,9.79084326171875,0.05748655880689621,0.011077274331450462,0.04598316801786422
1639426144014863000,9.800863037109375,0.05645955384671688,0.023970950435101984,0.0511778140515089
1639426144024883000,9.810883056640625,0.05793722518384456,0.02202025475874543,0.044528877556324
1639426144034903000,9.820903076171875,0.059224926906824106,0.01932049428075552,0.05340191984176636
1639426144044923100,9.830923095703126,0.07663081973791122,0.015035072046518326,0.051507484397292136
1639426144054943000,9.84094287109375,0.07881634708344935,0.02075184225812554,0.04566051193475723
1639426144064963000,9.850963134765625,0.07572188819944858,0.017861819905042646,0.04360007227361202
1639426144074984200,9.860984130859375,0.08312485793232917,0.019423954655230044,0.048749710121750826
1639426144085004000,9.871004150390625,0.07843056263625621,0.017937077098339794,0.04125964662730693
1639426144095024000,9.881024169921876,0.08675123173594475,0.02237096789255738,0.040487493211030956
1639426144105044200,9.891044189453124,0.07888941231966018,0.0338664676360786,0.03899287073910236
1639426144115064000,9.90106396484375,0.07479775909185409,0.026912118453532457,0.03956219505965709
1639426144125084200,9.911084228515625,0.06629764177203178,0.027315292426943777,0.045920039653778076
1639426144135104300,9.921104248046875,0.061302902224659915,0.03327697731032967,0.03490472464263439
1639426144145124000,9.9311240234375,0.07063713228106498,0.02516469026431441,0.03607259937822819
1639426144155144200,9.941144287109376,0.06364683500230311,0.02507306645810604,0.04306698831021785
1639426144165164300,9.951164306640624,0.07844985185861587,0.029697511388361453,0.04922317285239696
1639426144175185200,9.96118505859375,0.08222118709087371,0.020711364117264746,0.039598435416817665
1639426144185205200,9.971205322265625,0.07573065602779389,0.01799625993967056,0.037110125732421874
1639426144195225000,9.98122509765625,0.0651852966159582,0.028235914403200148,0.03950198930501938
1639426144205245000,9.991244873046876,0.0672597648024559,0.018567922347784042,0.04450491215884685
1639426144215265000,10.00126513671875,0.08971300415098667,0.019781682051718232,0.04702887767851353
1639426144225285000,10.01128515625,0.08841010485887527,0.0215063138872385,0.040194063222408295
1639426144235305000,10.021304931640625,0.08916180000901222,0.015475070898979901,0.04355097243487835
1639426144245325000,10.031324951171875,0.08769932624101638,0.02662584885805845,0.03758709559440612
1639426144255345200,10.04134521484375,0.07980594264268874,0.02349485735595226,0.04335632664561272
1639426144265365200,10.051365234375,0.06961947967112064,0.018515315377712248,0.034357612153887745
1639426144275385000,10.061385009765624,0.08350771977007389,0.018222177650034428,0.023230653461813924
1639426144285406200,10.07140625,0.07223813773691654,0.012668050654232502,0.03638531858921051
1639426144295426000,10.081426025390625,0.07175356909036636,0.018439473662525414,0.044449382579326624
1639426144305446100,10.091446044921875,0.055524318823218344,0.01804769786596298,0.028935002583265302
1639426144315466200,10.10146630859375,0.051585810330510136,0.01468304373845458,0.03133680302798748
1639426144325486000,10.111486083984374,0.07760171059668064,0.016925269707292318,0.041354339173436165
1639426144335506200,10.121506103515625,0.06282558174729347,0.023102058646082876,0.045015784290432924
1639426144345526300,10.1315263671875,0.07457680981755256,0.01500526143014431,0.04638648812174797
1639426144355546000,10.141546142578125,0.08320902908444404,0.007632394574582577,0.04756780686080456
1639426144365566000,10.15156591796875,0.07875614132881165,0.022274667911231515,0.04147767329216003
1639426144375587300,10.16158740234375,0.07720832736492156,0.025843904700130222,0.044371056646108624
1639426144385607000,10.17160693359375,0.06711480337381362,0.03169628399014473,0.05365560234189033
1639426144395627000,10.181626953125,0.07355506555438042,0.023404402593523263,0.049532384932041165
1639426144405647000,10.191647216796875,0.07299100193083286,0.025084026243537665,0.049311435657739634
1639426144415667000,10.2016669921875,0.08480828097462653,0.018569091391563413,0.044611879664659494
1639426144425687000,10.21168701171875,0.0924918212145567,0.01901946550756693,0.05455050535500049
1639426144435707100,10.22170703125,0.0899292772501707,0.02593129072263837,0.0427513464897871
1639426144445727200,10.231727294921875,0.08987550123631953,0.027617928635329008,0.03475450251698494
1639426144455747000,10.2417470703125,0.08646481600999832,0.02361030042916536,0.04781505962014198
1639426144465767200,10.25176708984375,0.08507891460955143,0.025235271282494066,0.04221007921993732
1639426144475788000,10.2617880859375,0.054689037042856214,0.022698592411726712,0.03410451417565345
1639426144485808000,10.27180810546875,0.061847676625847815,0.02392798807621002,0.04391162244081497
1639426144495828200,10.281828125,0.08158464275300502,0.02228548156619072,0.037895723152160644
1639426144505848000,10.29184814453125,0.08700316067039966,0.02570157361999154,0.039542905837297436
1639426144515868200,10.3018681640625,0.09401274717152118,0.02228635834902525,0.048047114810347555
1639426144525888300,10.31188818359375,0.074775547260046,0.01813464549705386,0.048671384188532826
1639426144535908000,10.321908203125,0.0761263773471117,0.014764292281121015,0.045399815171957014
1639426144545928000,10.331927978515624,0.07808511019945144,0.013783026158809662,0.04800386019051075
1639426144555948000,10.341947998046875,0.08401800737977028,0.018213994343578815,0.04322714730799198
1639426144565968100,10.351968017578125,0.08390577917695045,0.012901567149162291,0.04724222816824913
1639426144575989000,10.361989013671876,0.07341828743219375,0.02212663774266839,0.04265373133420944
1639426144586009000,10.372009033203126,0.06241875451207161,0.024804624780267476,0.045889644515514375
1639426144596029000,10.38202880859375,0.06256371594071387,0.02072583103403449,0.04028700220286846
1639426144606049000,10.392049072265625,0.060979077097773546,0.018830957198143004,0.04098082968592644
1639426144616069000,10.402069091796875,0.06063304013907909,0.013146335690468549,0.040863925307989116
1639426144626089200,10.412089111328125,0.06126373925805091,0.01609568701535463,0.04207505466341972
1639426144636109000,10.422109130859376,0.07214519875645638,0.015351444519311188,0.03686111940741539
1639426144646129200,10.432129150390624,0.07197276479899883,0.01458455180004239,0.03516249879598617
1639426144656149200,10.442149169921874,0.06403671110272408,0.01030307508856058,0.044831659895181654
1639426144666169000,10.452169189453125,0.06920856078267097,0.018078969787061215,0.04754676407277584
1639426144676190200,10.462190185546875,0.08058218771219253,0.014267448674887417,0.059196869856119154
1639426144686210000,10.4722099609375,0.08024024240672588,0.013933978936821221,0.04481763136982918
1639426144696230100,10.482230224609374,0.09146656982004642,0.018335574896633625,0.04319558312594891
1639426144706250200,10.492250244140624,0.08803250371813774,0.027475743685662746,0.03325988004505634
1639426144716270300,10.502270263671875,0.07735971853435039,0.028384675224125383,0.04486673120856285
1639426144726290200,10.512290283203125,0.0754027392476797,0.02951630960255861,0.04870236384868622
1639426144736310000,10.52231005859375,0.06514730269312859,0.0288883869625628,0.0411696302562952
1639426144746330000,10.532330078125,0.07823124067187309,0.024091508074849843,0.04530746071338653
1639426144756350000,10.542349853515624,0.07128185992538928,0.02113689605295658,0.04855389528870582
1639426144766371000,10.55237109375,0.07454056946039199,0.019342413851618764,0.051855274921655654
1639426144776391000,10.562390869140625,0.07294190209209919,0.017681348771601914,0.056218730828166
1639426144786411000,10.572410888671875,0.07715981204807758,0.019530629900097844,0.05151216057240963
1639426144796431000,10.58243115234375,0.07971767983734607,0.022985738790035248,0.05183657022118568
1639426144806451200,10.592451171875,0.06821428904831409,0.015822569162398575,0.04077975415587425
1639426144816471000,10.602470947265624,0.07883738987147808,0.018658815501630305,0.0376402870863676
1639426144826491100,10.6124912109375,0.07619944258332252,0.01862900488525629,0.037753099811077113
1639426144836511200,10.62251123046875,0.07380524092316627,0.020771277610957622,0.03234919494092464
1639426144846531000,10.632531005859375,0.07687748797535895,0.025688860268890855,0.03441664886474609
1639426144856551200,10.64255126953125,0.08246610176265239,0.02849354242607951,0.035841128709912295
1639426144866572000,10.652572021484374,0.07702011131644249,0.02682633986622095,0.03265256180167198
1639426144876592000,10.662592041015625,0.07880348760187625,0.018705869513750074,0.03648118017911911
1639426144886612200,10.6726123046875,0.06793196497559548,0.013868950876593589,0.041402854490280146
1639426144896632000,10.682632080078125,0.057308279630541796,0.0159577398493886,0.040162499040365215
1639426144906652000,10.69265185546875,0.07140811665356159,0.020945903525501488,0.0436357281088829
1639426144916672000,10.702672119140624,0.06724106010198592,0.019027210422605276,0.049477439874410625
1639426144926692000,10.712692138671875,0.05863748240768909,0.022282120565325022,0.05830021327733993
1639426144936712000,10.7227119140625,0.06958382383584975,0.02389496258944273,0.043864276167750356
1639426144946732000,10.73273193359375,0.08861293395459652,0.022588848426938056,0.04894903208613395
1639426144956752100,10.742752197265625,0.08629764274954796,0.01935673463791609,0.047450902482867235
1639426144966773000,10.75277294921875,0.08500877198278904,0.006665595369040966,0.04255786974430084
1639426144976793000,10.76279296875,0.08125789501667022,0.0180599728256464,0.04176584258377552
1639426144986813200,10.772813232421875,0.08503039929270743,0.016141279722750188,0.03916062852144241
1639426144996833000,10.7828330078125,0.08115735725164414,0.02055032833665609,0.05043664029538631
1639426145006853000,10.79285302734375,0.07755319527983665,0.022730010463297364,0.04624854095578193
1639426145016873200,10.802873291015626,0.06459960568249225,0.01449409703761339,0.04714636657834053
1639426145026893000,10.81289306640625,0.07495265739262104,0.01722191456630826,0.04644552483260631
1639426145036913200,10.8229130859375,0.09282499869167804,0.020162059671431778,0.056583472487330436
1639426145046933200,10.832933349609375,0.08802607397735118,0.021661796709895133,0.053307811817526814
1639426145056953000,10.842953125,0.07147533667087555,0.025378917536884545,0.041300563159584996
1639426145066974200,10.85297412109375,0.08841478103399276,0.01614420233219862,0.028270401194691656
1639426145076994300,10.862994384765624,0.06490764871835708,0.018164602243900298,0.028821605336666105
1639426145087014000,10.873013916015625,0.06514262651801109,0.019790449880063534,0.03702420101463794
1639426145097034000,10.883033935546875,0.055877954566478726,0.011240063677728175,0.032872926554083824
1639426145107054000,10.89305419921875,0.0647848991215229,0.008852291758358478,0.037626258561015126
1639426145117074000,10.903073974609375,0.06774082631766795,0.023123101434111594,0.04041384345293045
1639426145127094000,10.913093994140626,0.08428104223012924,0.018772943400591612,0.04616436980366707
1639426145137114000,10.923114013671874,0.09189560888707637,0.024424831682443617,0.04061550350487232
1639426145147134000,10.933134033203125,0.07435936767458916,0.021496669276058672,0.04522562764883041
1639426145157155000,10.943155029296875,0.08808978686332702,0.027803514335304497,0.04946750300228595
1639426145167175200,10.953175048828125,0.0962736778408289,0.028948446586728096,0.042380759611725806
1639426145177195000,10.963195068359376,0.10037176080942153,0.025060499237477777,0.042189620953798294
1639426145187215000,10.973215087890624,0.09254968888163566,0.027012510088086125,0.04884849432110786
1639426145197235200,10.983235107421875,0.0757429309874773,0.030780630449950695,0.040002340042591095
1639426145207255000,10.993255126953125,0.07089841356575488,0.02536503514200449,0.04580079718828201
1639426145217275100,11.003275146484375,0.060976154488325114,0.01551671808362007,0.04592939200401306
1639426145227295200,11.013295166015626,0.06747896051108837,0.01559913567006588,0.04774491699337959
1639426145237315000,11.023315185546876,0.06829729115664959,0.016570026528835297,0.053693011742830275
1639426145247335000,11.0333349609375,0.05759235726892948,0.012085136199742556,0.058066989043354986
1639426145257356300,11.043356201171875,0.05729892728030681,0.017934300619363783,0.06203823076188564
1639426145267376000,11.053376220703125,0.07280395492613315,0.016245324619114397,0.05316869560778141
1639426145277396000,11.06339599609375,0.07596446478366851,0.015166297210752962,0.04985679458081722
1639426145287416000,11.073416015625,0.06423018784821033,0.016138357113301752,0.049835751792788506
1639426145297436000,11.083435791015624,0.06700140612721443,0.02065320418924093,0.04306114309132099
1639426145307456000,11.0934560546875,0.07405366272628307,0.017064532047510145,0.04736790037453174
1639426145317476000,11.10347607421875,0.07536883697807788,0.029247137272357938,0.04350771781504154
1639426145327496000,11.113495849609375,0.07431202140152454,0.027614567634463308,0.03403846320211887
1639426145337516000,11.12351611328125,0.06998422133028506,0.03415565984100103,0.039922845065593716
1639426145347536100,11.1335361328125,0.0700870971828699,0.028425445625931023,0.036574119159579276
1639426145357557000,11.143556884765625,0.06680559129416942,0.02795534389615059,0.041648938205838204
1639426145367577000,11.1535771484375,0.07644318821132183,0.02732975934371352,0.05173369436860084
1639426145377597200,11.16359716796875,0.07866904756724834,0.01972089177519083,0.05175356811285019
1639426145387617000,11.173616943359375,0.07555705302655696,0.013220423839986324,0.04114566485881805
1639426145397637000,11.18363720703125,0.07974456784427165,0.018809768279641866,0.04537292716503143
1639426145407657200,11.1936572265625,0.0777080935806036,0.015328794296085834,0.05556289726793766
1639426145417677000,11.203677001953125,0.08230769633054733,0.015101415280997753,0.04727437687218189
1639426145427697200,11.213697265625,0.08296294536888599,0.010012859970331191,0.03740238667726516
1639426145437717000,11.223717041015625,0.08964286152422428,0.015697335347533224,0.03464987309873104
1639426145447738000,11.233738037109376,0.08287059091031551,0.017785101407021282,0.037112463819980616
1639426145457758200,11.24375830078125,0.07975742732584476,0.020346476327627896,0.03666238196492195
1639426145467778000,11.253778076171875,0.08160510101914405,0.023613515299558636,0.044966099929809565
1639426145477798000,11.2637978515625,0.07915712334513664,0.01649842259734869,0.04309387631714344
1639426145487818000,11.27381787109375,0.07340542795062065,0.01872662004083395,0.041966333591938014
1639426145497838000,11.283838134765626,0.07822831806242465,0.01960734839811921,0.047559623554348944
1639426145507858000,11.29385791015625,0.06101122580170631,0.01945113492310047,0.05666121389865875
1639426145517878000,11.3038779296875,0.06713233903050422,0.018449410534650088,0.05009235690236091
1639426145527898000,11.313898193359375,0.07196808862388133,0.018741379218548536,0.041049218747019764
1639426145537919000,11.3239189453125,0.060111646613478655,0.018636603669822217,0.045342532026767725
1639426145547939000,11.33393896484375,0.05263210451304912,0.014579729494452475,0.04230827889740467
1639426145557959200,11.343959228515626,0.052744332715868945,0.017696400210261344,0.04298632428944111
1639426145567979000,11.35397900390625,0.06614332799315452,0.01965630210638046,0.03467033136487007
1639426145577999000,11.3639990234375,0.07926584441661834,0.02679448342323303,0.03361585387587547
1639426145588019200,11.374019287109375,0.09071195206046104,0.032656068933010096,0.043563831916451454
1639426145598039000,11.3840390625,0.08654197289943695,0.02418181670680642,0.052041152882575985
1639426145608059100,11.39405908203125,0.10008709864914417,0.01446034089848399,0.051208209189772605
1639426145618079200,11.404079345703124,0.10198445670306681,0.019709785859286785,0.0497878209978342
1639426145628099000,11.41409912109375,0.08856208055019378,0.0286507788144052,0.0660918900668621
1639426145638120200,11.4241201171875,0.08400222528874873,0.025179303311556576,0.06308627851009369
1639426145648140300,11.434140380859375,0.06897942820191383,0.02806567240282893,0.06152969671785831
1639426145658159900,11.444159912109376,0.0784264709830284,0.027306086207181213,0.06265373231172561
1639426145668180000,11.454179931640626,0.07416296831965447,0.02697363938242197,0.05511047732532024
1639426145678200000,11.464199951171874,0.07070084516704082,0.03367532897815108,0.05092296250760555
1639426145688220000,11.474219970703125,0.06743336780369281,0.030929829662293195,0.04341828596591949
1639426145698240000,11.484239990234375,0.06694061585068703,0.02704100553020835,0.03396422892212868
1639426145708260000,11.494260009765625,0.06701777274012566,0.018623305796831847,0.027716274443268775
1639426145718280200,11.5042802734375,0.06665303108096123,0.018255787658691406,0.0263514158308506
1639426145728300000,11.514300048828124,0.06758943514823913,0.015008768561482429,0.02931727989912033
1639426145738321200,11.524321044921875,0.07221943303644657,0.011113368558138608,0.04080138146579265
1639426145748341000,11.534341064453125,0.0767237587183714,0.013059972581267357,0.05473521427214145
1639426145758361000,11.544361083984375,0.0828881265670061,0.015326894599944352,0.04095744881033897
1639426145768381200,11.554381103515626,0.08971534223854541,0.019740911649912596,0.03503799563348293
1639426145778401000,11.564401123046874,0.09641104048490523,0.0258045956030488,0.04489595730304718
1639426145788421000,11.574421142578124,0.08605448164343833,0.021438363217562435,0.04425473679006099
1639426145798441200,11.584441162109375,0.08324819205105304,0.01798018558770418,0.04025719158649444
1639426145808461300,11.59446142578125,0.08839958346486092,0.019386691384762525,0.0366384165674448
1639426145818481000,11.60448095703125,0.07926116824150085,0.009554156417399644,0.04832242462038994
1639426145828502300,11.614502197265624,0.08374211304783821,0.007843553107231855,0.047718028986454004
1639426145838521900,11.62452197265625,0.0679787267267704,0.013975333860516548,0.059386839470267294
1639426145848542000,11.6345419921875,0.05809855322539806,0.004620499407500029,0.05918342585265636
1639426145858562000,11.64456201171875,0.06882979059815407,0.012801613906025886,0.049156537356972695
1639426145868582000,11.654581787109375,0.06292611951231956,0.01803337707966566,0.053073418539762496
1639426145878601500,11.6646015625,0.06970306630134582,0.019112112227082253,0.04645955335795879
1639426145888621600,11.67462158203125,0.0706581750690937,0.02347527587264776,0.037080315116047854
1639426145898641700,11.6846416015625,0.077533906057477,0.017194295907020568,0.037188451665639874
1639426145908661500,11.69466162109375,0.07753039892613887,0.02031856540739536,0.041936522975564
1639426145918682600,11.7046826171875,0.07353519181013107,0.023779227255284786,0.041107670935988425
1639426145928702700,11.71470263671875,0.07812368864417076,0.02093611278384924,0.04418342511951923
1639426145938722600,11.72472265625,0.08675941504240035,0.019098814354091883,0.04675882856547832
1639426145948742700,11.73474267578125,0.08869652058482169,0.03164630736857652,0.053663201126456256
1639426145958762800,11.7447626953125,0.0746235715687275,0.02741656084433198,0.05119827231764793
1639426145968782600,11.754782470703125,0.07301613637208938,0.024657909785956143,0.048664369925856585
1639426145978802700,11.764802734375,0.0683142422914505,0.03207183930426836,0.0479448234796524
1639426145988822500,11.774822509765626,0.06730360394418239,0.029632921719551085,0.04690495903789997
1639426145998842400,11.78484228515625,0.06962298680245876,0.04048340155780315,0.04465864141583442
1639426146008863700,11.79486376953125,0.0739133774727583,0.02989069587290287,0.033407764083147044
1639426146018883600,11.804883544921875,0.07582417953014374,0.027134967423975465,0.03338847486078739
1639426146028903400,11.8149033203125,0.07095394314527512,0.025355975052714346,0.03132452806830406
1639426146038923500,11.824923583984376,0.08430793023705482,0.015230886879563331,0.02984919481873512
1639426146048943600,11.834943603515624,0.08558920221924782,0.018718582864850758,0.04146306024491787
1639426146058963500,11.84496337890625,0.10186521423757075,0.015346037691831588,0.0446902055978775
1639426146068983600,11.854983642578125,0.1070265425235033,0.012766104201227426,0.03704582832455635
1639426146079003600,11.865003662109375,0.1341623867303133,0.013343757958710192,0.05546995828747749
1639426146089023500,11.8750234375,0.1428980663716793,0.018788140969723463,0.06856734026968479
1639426146099044600,11.885044677734374,0.16266367407143115,0.013438742765784262,0.06977028631865978
1639426146109064700,11.895064697265624,0.1441524503469467,0.011462620387226343,0.06735737995803356
1639426146119084500,11.90508447265625,0.11093816300928593,0.02025982095748186,0.04361000914573669
1639426146129104600,11.915104736328125,0.08814356287717819,0.020382862815260885,0.02604337279498577
1639426146139124700,11.925124755859375,0.062196636193990705,0.011141717869788407,0.029676760861277577
1639426146149144600,11.93514453125,0.04341244074702263,0.01995470053106546,0.04393091166317463
1639426146159164700,11.94516455078125,0.019667408022284505,0.019597849917411803,0.03728606682121754
1639426146169184800,11.955184814453125,-0.004612462231516838,0.01814326719492674,0.025970892080664634
1639426146179204400,11.965204345703125,-0.004187514817714691,0.024846271964907643,0.03699380587637424
1639426146189224400,11.975224365234375,0.0034217911422252654,0.03668517831861973,0.036432080340385434
1639426146199245600,11.98524560546875,0.004179331511259079,0.031081659223139286,0.053204935964941975
1639426146209265400,11.995265380859376,0.014700141003727912,0.0316366627573967,0.052397711235284805
1639426146219285500,12.005285400390624,0.019003975677490233,0.023544980107992886,0.05949672958552837
1639426146229305600,12.0153056640625,0.029294483545422554,0.022958412391692398,0.06299626213908195
1639426146239325400,12.025325439453125,0.06879296571910382,0.024912907460331916,0.06658814915120602
1639426146249345500,12.035345458984375,0.09056465254426002,0.024924305637180805,0.06415946069955826
1639426146259365600,12.04536572265625,0.10166706131696701,0.03171893421337008,0.05350596473813057
1639426146269385500,12.055385498046874,0.09886778598725796,0.02705254983752966,0.0512912112981081
1639426146279405600,12.065405517578125,0.0937023660480976,0.019543927773088214,0.053422962629795075
1639426146289426700,12.0754267578125,0.0924345380693674,0.01872574325799942,0.05061901112496853
1639426146299446500,12.085446533203125,0.10134615879952907,0.01975041013062,0.04774082534015178
1639426146309466600,12.095466552734376,0.12067980482280254,0.006775777745246887,0.04043605528473854
1639426146319486700,12.10548681640625,0.11957213584184646,0.013616437420248985,0.04792202712595463
1639426146329506600,12.115506591796875,0.12060381697714329,0.01810278905406594,0.03891337576210498
1639426146339526700,12.125526611328125,0.11164894162714481,0.023816782786697147,0.025042671319842336
1639426146349546800,12.135546630859375,0.09422259052991866,0.023474545220285654,0.015738251879811285
1639426146359566600,12.145566650390625,0.09320902957320212,0.024688451054692268,0.017820903372764586
1639426146369586400,12.15558642578125,0.11098375571668147,0.027026684743911025,0.029517186385393142
1639426146379607600,12.165607666015624,0.11310264756679535,0.016342793644219637,0.04785129997730255
1639426146389627400,12.17562744140625,0.10120879615545272,0.0073546005465090275,0.04527063583433628
1639426146399647500,12.1856474609375,0.08245908749997616,0.0050036535061895844,0.03460778752267361
1639426146409667600,12.19566748046875,0.04395779967010021,-0.0033408348605036735,0.03177694801092148
1639426146419687400,12.2056875,0.030828853505849838,-0.0023493396051228045,0.0322901582300663
1639426146429707500,12.21570751953125,0.05419336248040199,0.0108000648252666,0.04897007487416267
1639426146439727600,12.2257275390625,0.15557868424654006,0.0151341485068202,0.07879764238297939
1639426146449747500,12.23574755859375,0.27912615346014497,0.01307458562850952,0.08407879765629768
1639426146459767600,12.245767578125,0.3538619532316923,0.005598258398473262,0.04927168816924095
1639426146469788700,12.25578857421875,0.2996685907512903,0.007470482011139392,0.008943184912204742
1639426146479808500,12.26580859375,0.17829145131409166,0.021588439212739466,-0.0256499895632267
1639426146489828600,12.27582861328125,0.04154606235325336,-0.00800911893248558,-0.06577040302753448
1639426146499848700,12.2858486328125,-0.0772936675608158,-0.06371010949686169,-0.09265373377799987
1639426146509868500,12.29586865234375,-0.1742693561911583,-0.07398951144888996,-0.11674363441765308
1639426146519888600,12.305888671875,-0.27450550792217254,-0.045396600301563735,-0.0836339764982462
1639426146529908700,12.31590869140625,-0.2970072625875473,-0.006250146435946226,-0.0316758257240057
1639426146539928600,12.325928466796874,-0.24426585248112678,0.023667583574354646,0.015654080727696418
1639426146549948700,12.33594873046875,-0.12929215034544467,0.03742459850907325,0.05587210934758186
1639426146559969500,12.345969482421875,-0.015029811349511146,0.04628171257302165,0.0855506237745285
1639426146569989600,12.35598974609375,0.0018324761241674422,0.05297200399190187,0.11120412046909331
1639426146580009500,12.366009521484376,-0.04344751206040382,0.0650515872336924,0.13209843993782996
1639426146590029600,12.376029541015624,-0.05934767650365829,0.04944806764945388,0.11033259833157062
1639426146600049400,12.38604931640625,-0.04379121093153953,-0.003427344100177288,0.06283902575075626
1639426146610069500,12.396069580078125,-0.010888473761081695,-0.055061377486586564,0.04177168780267238
1639426146620089600,12.406089599609375,-0.010704933887720107,-0.07146189266741275,0.03580722644031047
1639426146630109400,12.416109375,-0.14566168586611747,-0.04775748421400785,0.012831424522399902
