time,seconds_elapsed,z,y,x
1638746695594866000,0.019865966796875,0.0801999103963375,0.007599734413996338,0.005295366461761295
1638746695604886800,0.02988671875,0.0785837073713541,-0.010586349009349941,0.013427965643443167
1638746695614909000,0.039908935546875,0.07351590258777141,-0.0037258886553347107,0.01453196309627965
1638746695624929800,0.0499296875,0.04136193795800209,-0.012842786166630685,-0.006762041480839252
1638746695634952000,0.059951904296875,0.04174772240519523,0.05335018965452909,0.006154339644964784
1638746695644972800,0.069972900390625,0.06943126362264156,0.16516170143224299,-0.07976836884496732
1638746695654995000,0.079994873046875,0.015019289955496787,0.002506247199885547,0.0294007934641093
1638746695665015800,0.090015869140625,-0.03928220907449722,-0.04296835024133324,0.06277361409803853
1638746695675038000,0.100037841796875,-0.08235036642849444,0.022762889819592236,0.05085979761090129
1638746695685058800,0.110058837890625,-0.031794483667612075,0.04818023967072367,0.050838352964073415
1638746695695080700,0.120080810546875,0.1858849751830101,0.14554076290018855,0.13529076970573514
1638746695705102000,0.13010205078125,0.3729015847444534,-0.03480747481323779,-0.07833307534484192
1638746695715123000,0.140123046875,0.3592307867884636,-0.06879281958863138,-0.049470115084480494
1638746695725144800,0.150144775390625,0.18032675653398036,-0.03301606135182082,0.05210650973636657
1638746695735166000,0.160166015625,0.07218903789818286,-0.04466799376606941,-0.000909917919151485
1638746695745187800,0.170187744140625,0.10405600228011608,-0.01380246151164174,-0.007429181886371225
1638746695755209000,0.180208984375,0.14597557412087916,0.008462927114591002,-0.04474504105765372
1638746695765230800,0.19023095703125,0.1548497854501009,0.0016834230422973632,-0.03784554560119286
1638746695775252000,0.200251953125,0.13053484388291836,-0.00989654011428356,-0.020528938488755373
1638746695785273900,0.21027392578125,0.10973755504786968,-0.006107084703445434,-0.009264763283077626
1638746695795294700,0.220294677734375,0.09385200365185738,0.014902531708031892,-0.005149144657794386
1638746695805316900,0.23031689453125,0.09174071058630942,-0.001073620580881834,-0.008358352495264261
1638746695815338000,0.240337890625,0.09307166692912577,0.0007365706462413072,-0.010704075371194631
1638746695825360000,0.25035986328125,0.09383388347327709,-0.007691504350677132,-0.00509867484588176
1638746695835380700,0.260380615234375,0.10075170003771781,-0.004508198139443993,-0.0014113646352663636
1638746695845403000,0.27040283203125,0.0961380687624216,-0.0031437779184430837,-0.01185395779237151
1638746695855424000,0.280424072265625,0.10573065749406814,-0.005959054534882307,-0.012360299879312515
1638746695865446700,0.29044677734375,0.10230243661105633,-0.006645502429082989,-0.013340670952480286
1638746695875467500,0.300467529296875,0.10561258407235145,-0.01109042607396841,-0.0069509516490623355
1638746695885489700,0.31048974609375,0.09814064075648785,-0.003008680296689272,-0.004530775297433138
1638746695895510800,0.3205107421875,0.09755202721357345,0.0016575579486787317,0.003955167366564274
1638746695905532700,0.33053271484375,0.08933014231324195,-0.008137348422035574,0.00656078328769654
1638746695915553500,0.340553466796875,0.0948836847871542,0.004982683783397078,0.0013836363781243562
1638746695925575400,0.350575439453125,0.09340952058136463,0.008050327725708484,-0.0038908699586987492
1638746695935596800,0.3605966796875,0.09193243376612663,0.016874927759543062,-0.004946900083962828
1638746695945618700,0.37061865234375,0.10167232201397418,0.013509981371089816,-0.003139120009634644
1638746695955639600,0.3806396484375,0.09434124847352504,0.010623904540762305,-0.006321933030523359
1638746695965661400,0.390661376953125,0.09599953707456588,0.017395225306600332,-0.022202168930601326
1638746695975682600,0.4006826171875,0.09705985978245735,0.004494461875036358,-0.015385693848785012
1638746695985704700,0.41070458984375,0.08972937076389789,0.007756824671849608,-0.015210446879733353
1638746695995725600,0.4207255859375,0.0860036282390356,0.0032120939143002033,-0.008924790738988667
1638746696005747500,0.43074755859375,0.10068506454229355,-0.00581913460753858,-0.009472871342115104
1638746696015768600,0.4407685546875,0.09472761744260788,0.00007774141132831573,-0.004779452828876674
1638746696025790700,0.450790771484375,0.0996890392422676,-0.0074593030299991364,-0.003229611304681748
1638746696035811600,0.4608115234375,0.1001554877102375,0.005341872484609485,0.0016314919256605208
1638746696045833500,0.47083349609375,0.10049158779680728,-0.004875277886167168,-0.004070866168104112
1638746696055854600,0.4808544921875,0.10394260503351688,-0.0021129005007445812,-0.011731536989100276
1638746696065876700,0.490876708984375,0.10394903477430344,-0.004988894328474998,-0.013272190559841692
1638746696075897600,0.500897705078125,0.09557342061698436,-0.005885331711545586,-0.0080943129979074
1638746696085918700,0.510918701171875,0.0987304233431816,0.0025504882004112003,-0.0029721659448929127
1638746696095940600,0.520940673828125,0.09755202721357345,0.003392199721559882,-0.00008102934695780277
1638746696105961500,0.53096142578125,0.09187398157715797,-0.004615530971437692,-0.004368899266608059
1638746696115983600,0.540983642578125,0.08949614652991295,-0.0021436609651893377,-0.004495338657870889
1638746696126004700,0.551004638671875,0.09609832127392291,0.004764803249016404,-0.004435516495723277
1638746696136026600,0.561026611328125,0.10299684861600399,0.004587620051205158,-0.0020941775339655576
1638746696146047500,0.571047607421875,0.09731237323880194,0.007314999188482761,-0.0027281828548759222
1638746696156069600,0.581069580078125,0.09611761049628258,0.005372194557636976,-0.009417579224612563
1638746696166090800,0.5910908203125,0.09059387863874435,0.007539967050775885,-0.0069026920605450865
1638746696176112600,0.601112548828125,0.09778349788188934,0.013811156274750828,-0.01286118033984676
1638746696186133500,0.611133544921875,0.09300620047748089,0.015000804450735448,-0.0067473736346699295
1638746696196155600,0.62115576171875,0.09016425504982471,0.010946049167215824,-0.004882054686825722
1638746696206176500,0.631176513671875,0.09915420171320438,0.015666282622143625,-0.010192052462138236
1638746696216198700,0.64119873046875,0.10214812283217907,0.013785364246368408,-0.00017161197355017066
1638746696226219800,0.6512197265625,0.09317045112848281,0.00852664000056684,-0.005986143471207469
1638746696236241700,0.66124169921875,0.09736556473076342,0.003043532414361834,-0.007311218062508851
1638746696246262500,0.671262451171875,0.10321253719329833,0.0013578443497419357,-0.011200425787083804
1638746696256284700,0.68128466796875,0.09978139370083808,0.004760565465316176,-0.013915146372187883
1638746696266305800,0.691305908203125,0.09172142136394977,0.003527589604258537,-0.015565434329863636
1638746696276327700,0.70132763671875,0.09113689947426319,-0.0008865005109459161,-0.009661288319993763
1638746696286348500,0.7113486328125,0.08441139061152934,-0.00013582827411592007,-0.004733312132209539
1638746696296370400,0.721370361328125,0.09294307211339473,-0.0000732113666832447,-0.0010893478729762137
1638746696306391800,0.731391845703125,0.09684300216138363,0.01095109066851437,0.000739310592599213
1638746696316413700,0.74141357421875,0.09594985271394252,0.021400150099024174,0.008855378764588384
1638746696326434600,0.7514345703125,0.09564648585319518,-0.0003319353681057691,0.015303203197102993
1638746696336456400,0.76145654296875,0.10387363145053385,-0.0009629267480224371,0.011517510645929723
1638746696346477600,0.7714775390625,0.10747194820344448,-0.0020301175881177187,0.01078616416407749
1638746696356499700,0.781499755859375,0.10042436777949333,0.015443506716936825,0.014384681846387684
1638746696366520600,0.7915205078125,0.09216507347822189,0.019015666115283963,0.009137574973143636
1638746696376542500,0.80154248046875,0.10516484030485153,0.013642960100993513,0.007516421778406947
1638746696386563600,0.8115634765625,0.1103986493051052,0.0023714053064584732,-0.0043352344590239225
1638746696396585700,0.821585693359375,0.09993570747971534,0.0032052988473325965,-0.02135278555965051
1638746696406606600,0.831606689453125,0.10187748919725417,0.0027014409784227606,-0.01856594958640635
1638746696416628500,0.84162841796875,0.09408815049529075,0.0025978344734758135,-0.021657887719757855
1638746696426649600,0.851649658203125,0.08569207807183266,0.003357128408178687,-0.021959409683290868
1638746696436670500,0.86167041015625,0.08749649714529514,-0.0004153758678585291,-0.015332831150386481
1638746696446692600,0.871692626953125,0.10456628988981247,-0.005160305372625589,-0.014087781259045005
1638746696456713700,0.881713623046875,0.10862696345746517,-0.007942994893714785,-0.021658636638429013
1638746696466735600,0.891735595703125,0.10310790777504443,0.0049829029791057106,-0.0194722507763654
1638746696476756500,0.901756591796875,0.09055062401890754,0.007230389644950628,-0.00904436199804768
1638746696486778600,0.911778564453125,0.09221183522939681,0.013174685002118349,0.0033439401330426334
1638746696496799700,0.9217998046875,0.08864040648341179,0.020118293594941494,-0.00032280221357941627
1638746696506821600,0.931821533203125,0.08971066606342792,0.022178514060378074,-0.01629002227736637
1638746696516842500,0.941842529296875,0.09166004656553269,0.012640651190653442,-0.02472094681849703
1638746696526864600,0.95186474609375,0.08836801928281783,0.005429550768062472,-0.017083675139397382
1638746696536885500,0.961885498046875,0.08762041578590869,0.016585808619856833,-0.02316520527647808
1638746696546907600,0.97190771484375,0.09899462723731994,0.0027187574394047257,-0.026624058759771287
1638746696556928500,0.981928466796875,0.09870762698948382,-0.007279489483684301,-0.026351379298232495
1638746696566950700,0.99195068359375,0.10230477469861507,0.0031116292145103213,-0.024228158332873135
1638746696576971500,1.001971435546875,0.11697510508596896,-0.017117212082818148,-0.009329298152960836
1638746696586993700,1.01199365234375,0.10278057551681995,-0.011670856310427188,-0.014116769891511649
1638746696597014800,1.022014892578125,0.08604162216186523,-0.006475771885365247,0.002533445734065026
1638746696607036700,1.03203662109375,0.08364332884848118,-0.003520502276346087,0.006924191506300121
1638746696617057500,1.0420576171875,0.08979600625932216,0.0003181260384619236,0.010643230295740068
1638746696627079700,1.05207958984375,0.1025298156261444,-0.005546089819818735,0.017113759750407187
1638746696637100800,1.062100830078125,0.09280687851309775,0.02063617998920381,0.011756927158683537
1638746696647122700,1.072122802734375,0.08832476466298103,0.03659976505748928,0.024849632965773343
1638746696657143600,1.0821435546875,0.10594342346191406,0.015113324914500117,0.020475345137994736
1638746696667165400,1.09216552734375,0.12444938648939131,0.00408354298658669,0.01103054911289364
1638746696677186800,1.102186767578125,0.13144552898705006,-0.012499854480475187,-0.0004202347060665488
1638746696687208700,1.112208740234375,0.13142390167713164,0.003039513826370239,-0.012477423452958464
1638746696697229600,1.1222294921875,0.10342179602980613,-0.0067626260027289385,-0.018801438842713833
1638746696707251500,1.13225146484375,0.07498071444332599,-0.032008637874946,-0.02031666571125388
1638746696717272600,1.1422724609375,0.06392915907502174,-0.03947305547147989,-0.022334672736469656
1638746696727294700,1.152294677734375,0.07294482470154762,-0.02300122862011194,-0.01370396957322955
1638746696737315600,1.162315673828125,0.0792635063290596,-0.012872633315622805,-0.01106004920201376
1638746696747336700,1.172336669921875,0.09350129051804543,0.01158222817890346,-0.018991718984115866
1638746696757358600,1.182358642578125,0.09455167635381222,0.034092312281206245,-0.010947601803485304
1638746696767379500,1.19237939453125,0.1006955859363079,0.052643941081315274,-0.004260653119161724
1638746696777401600,1.202401611328125,0.08917875114381313,0.06094013332687318,-0.0036823783071711657
1638746696787422700,1.212422607421875,0.08122457726895808,0.0611238923959434,0.0032409364162944254
1638746696797444600,1.222444580078125,0.09481237311661243,0.04532200069539249,0.002287179355416447
1638746696807465500,1.232465576171875,0.10032616810202598,0.028338571060076354,0.00043817222155630587
1638746696817487600,1.242487548828125,0.097314126804471,0.0050339025139808655,-0.000006831599585711955
1638746696827508700,1.2525087890625,0.10270926384627818,0.006442892529070377,-0.009131711487937719
1638746696837530600,1.262530517578125,0.10587503440082073,-0.0005783113446086645,-0.0058521418279968195
1638746696847551500,1.272551513671875,0.10515548795461654,-0.013491276670619844,-0.01070279672956094
1638746696857573400,1.282573486328125,0.10025777904093265,-0.012378127796947955,-0.015463636189512908
1638746696867594200,1.29259423828125,0.09655483286976814,0.004102320752292871,-0.021238913389015943
1638746696877616000,1.3026162109375,0.09373977544903754,0.01703391771353781,-0.013129439354594796
1638746696887637200,1.31263720703125,0.08971475771665573,0.016073182922601698,-0.013043003180157392
1638746696897659100,1.3226591796875,0.0894108063340187,0.011683277400583027,-0.006783595725521445
1638746696907680300,1.33268017578125,0.09090484428405761,0.002941241083666682,0.0064315674174576995
1638746696917702100,1.3427021484375,0.09942483534812926,0.001333805887028575,0.010638188794441521
1638746696927723300,1.35272314453125,0.09821136790513992,-0.012684271136671303,0.0027792006560601293
1638746696937745200,1.3627451171875,0.10253799893260002,-0.027185528567433354,-0.0017218188239261508
1638746696947766000,1.37276611328125,0.0996978070706129,-0.027718320269882676,-0.00020973376054316757
1638746696957788200,1.3827880859375,0.1149696104824543,-0.02585420689843595,-0.021409137123078105
1638746696967809300,1.392809326171875,0.10974164670109748,-0.015030103610455989,-0.013452588628046214
1638746696977831200,1.4028310546875,0.0949316155821085,0.003624766368418932,-0.016691570549272
1638746696987852000,1.41285205078125,0.08805763815939426,0.005143135042116046,-0.02124234745511785
1638746696997874200,1.422874267578125,0.09373860640525818,0.02208331005759537,-0.03116115420013666
1638746697007895300,1.432895263671875,0.08699322379827498,0.0180660372402519,-0.01458745614318177
1638746697017917200,1.442917236328125,0.0916068550735712,0.020259601761773226,-0.010967749542370437
1638746697027938000,1.45293798828125,0.0959200420975685,0.020950725831091404,-0.004433507201727479
1638746697037960000,1.4629599609375,0.08992343203127384,0.00888356367945671,-0.005503419721871614
1638746697047981300,1.472981201171875,0.09007365415692328,0.0060576926037669175,-0.000012019231356680392
1638746697058003200,1.483003173828125,0.10235621262490749,0.004558540087193251,0.0008811484823934734
1638746697068024000,1.493024169921875,0.0951841290384531,-0.0004712707735598087,0.0016117643118835985
1638746697078045200,1.503045166015625,0.1076315226793289,-0.002895502245798707,0.011703662601485847
1638746697088067000,1.513067138671875,0.10480769743025302,0.010943638014420866,0.008415343379508703
1638746697098088200,1.523088134765625,0.08625964882671833,0.013274345984309911,0.005020440244209021
1638746697108110000,1.533110107421875,0.09211129746437072,0.016058789071068166,0.004238075961172581
1638746697118131200,1.543131103515625,0.09960369904637337,0.028135376638174055,-0.0013872165746986866
1638746697128153000,1.553153076171875,0.08898235178887844,0.04293079470992088,0.01427488306267187
1638746697138174000,1.563174072265625,0.07999182060360908,0.03779949623607099,0.021271281288657337
1638746697148196000,1.573196044921875,0.08686755159199237,0.017382146629318595,0.01274743603337556
1638746697158217200,1.58321728515625,0.10256897859275341,0.022531930607929823,-0.01189668268924579
1638746697168239000,1.593239013671875,0.10375029733180999,0.00765935564674437,-0.026405922497063875
1638746697178260000,1.603260009765625,0.08922960454821587,-0.013513196241483092,-0.028119631079770623
1638746697188282400,1.613282470703125,0.08803601084947585,-0.010867357907816767,-0.035133601495064795
1638746697198303200,1.62330322265625,0.09164251090884208,-0.006074424542859196,-0.03672916359081864
1638746697208325000,1.6333251953125,0.09092647159397602,-0.008811229095607996,-0.031309915021061896
1638746697218346200,1.64334619140625,0.09619652095139027,-0.02072780379541218,-0.02596376822013408
1638746697228368100,1.6533681640625,0.08693243352174758,-0.006167582719027996,-0.01193604658525437
1638746697238389200,1.66338916015625,0.07542670464515686,0.017711670844629407,0.011599142781086265
1638746697248411100,1.6734111328125,0.08440963704586028,0.00999137879088521,0.011366430003754794
1638746697258432300,1.683432373046875,0.1099894839823246,0.01208104454651475,0.023398045917972923
1638746697268454100,1.6934541015625,0.11537994484901427,0.009962883348762988,0.022336188840121028
1638746697278475000,1.70347509765625,0.09667641342282295,0.012800664057955146,0.006837463070917874
1638746697288497200,1.7134970703125,0.07317454180419444,0.028509032256156204,0.008075370835419744
1638746697298518300,1.723518310546875,0.08048574160039425,0.01315086573511362,-0.017572572901193052
1638746697308540200,1.7335400390625,0.08450666767954826,-0.00834375771433115,-0.03888435059702024
1638746697318561000,1.74356103515625,0.1054705452531576,-0.021902035206556317,-0.03969742054557428
1638746697328583200,1.753583251953125,0.09350772025883197,-0.013356252114102244,-0.047040038393344724
1638746697338604300,1.763604248046875,0.08587620246708393,-0.014490662971511482,-0.040197588620055465
1638746697348626200,1.773626220703125,0.0809410841524601,-0.011805515540763735,-0.02475402710419148
1638746697358647000,1.78364697265625,0.09933715706467627,-0.011004574421420693,-0.02001455922583118
1638746697368668200,1.793668212890625,0.10667699843347073,-0.0033877427421510216,-0.0017615845787338912
1638746697378690300,1.803690185546875,0.09680150110721587,-0.002625745393708348,0.015546784428320824
1638746697388711200,1.813711181640625,0.10247603961229323,-0.009063596421480179,0.03681117931846529
1638746697398733000,1.823733154296875,0.10499883608818053,-0.01729812160767615,0.04551772419689223
1638746697408754200,1.833754150390625,0.10978197871148586,-0.015702815240249038,0.050387047266308216
1638746697418776300,1.8437763671875,0.10453531022965908,0.00426021472774446,0.06875791267203167
1638746697428797200,1.853797119140625,0.10707973401546478,-0.0027072861973196265,0.06171210408005863
1638746697438819000,1.863819091796875,0.10931669928729533,-0.0006774608701467514,0.04644349727230146
1638746697448840200,1.873840087890625,0.11455167733132839,-0.005348667551577091,0.024002478084526956
1638746697458862000,1.883862060546875,0.11005728852152824,-0.010279548082500695,0.0005079495221376419
1638746697468883000,1.893883056640625,0.09986030415594577,0.008772066128998994,0.0032489553259685633
1638746697478905000,1.903905029296875,0.10147826074659824,0.019844956546276805,0.006733363375626504
1638746697488926200,1.91392626953125,0.10728957737386226,0.019203005380928517,0.0015896803442388772
1638746697498948000,1.923947998046875,0.101745387250185,0.021735373402759432,0.002864138993155211
1638746697508969000,1.933968994140625,0.10652151561081409,0.018681977181509136,-0.008016553320270032
1638746697518991000,1.9439912109375,0.09499708203375339,0.008934490149095654,0.001337842741329223
1638746697529012200,1.95401220703125,0.08871288719773292,-0.0005138678062707186,-0.012197492266725748
1638746697539034000,1.9640341796875,0.08585632872283458,0.0003304740633815527,-0.023413389617577194
1638746697549055000,1.974054931640625,0.09229775994718074,0.006951938029751181,-0.029275486584007738
1638746697559077400,1.984077392578125,0.08603168528974056,0.006930968306958675,-0.03779343182146549
1638746697569098200,1.99409814453125,0.08080781316161155,0.007874605832621454,-0.05339470464969054
1638746697579120000,2.0041201171875,0.09189736245274543,0.00979965561106801,-0.03870108471829444
1638746697589141200,2.014141357421875,0.10059271008372306,0.009497384728863835,-0.04471130318483337
1638746697599163100,2.0241630859375,0.10195815321803092,0.024637816845998167,-0.03897126169549301
1638746697609184300,2.034184326171875,0.09388415235579013,0.02098060951270163,-0.03582474383069202
1638746697619206100,2.0442060546875,0.09224223036766052,0.018286913449317217,-0.030646226947940884
1638746697629227300,2.054227294921875,0.09136544753313064,0.014013620044291018,-0.0322267010724172
1638746697639249200,2.064249267578125,0.09468027116954326,0.013581950628757476,-0.02940700400918722
1638746697649270000,2.07427001953125,0.09364625194668769,0.004026040645688772,-0.009772073484398423
1638746697659291400,2.08429150390625,0.09066051413416862,0.001022036524116993,0.008263952210079879
1638746697669313300,2.094313232421875,0.10159574964642525,-0.0013194851007312536,0.022831351945921778
1638746697679334100,2.104334228515625,0.09922609790563583,0.003784121648594737,0.03444680654099211
1638746697689356000,2.11435595703125,0.09805413151681423,0.013668094542250037,0.026310681961663064
1638746697699377200,2.124377197265625,0.09494272149801254,0.012244856806099415,0.03363788304459303
1638746697709399300,2.1343994140625,0.09406652318537234,0.01173858778439462,0.008685575155634433
1638746697719420200,2.144420166015625,0.09542904371023178,0.010115881953388452,0.0018328231840394435
1638746697729442000,2.154442138671875,0.10306406863331793,0.01728686956129968,-0.008743132295459508
1638746697739463200,2.164463134765625,0.09409691832363605,0.010423048206418753,-0.018459840597119182
1638746697749485300,2.1744853515625,0.09992869321703911,0.005528334967419505,-0.016463954072166234
1638746697759506200,2.184506103515625,0.10187339754402637,0.0012752806328237055,-0.014043923851009457
1638746697769528000,2.194528076171875,0.10142565377652644,-0.005941445812955498,-0.015598112756758927
1638746697779549200,2.204549072265625,0.10352525640428066,-0.00035604689605534077,-0.009301990020927041
1638746697789571000,2.214571044921875,0.10232815557420254,-0.009785773216187954,-0.0012394056018441915
1638746697799592200,2.22459228515625,0.10801379999518394,-0.00750577252022922,0.004856920245569199
1638746697809614000,2.234614013671875,0.09769231246709822,-0.0019805793579667805,0.022395919670723376
1638746697819635200,2.24463525390625,0.10202829584479331,-0.0033723259773105383,0.02142272725701332
1638746697829657000,2.254656982421875,0.09889058234095573,-0.0033894963078200816,0.014159933179803191
1638746697839678000,2.264677978515625,0.09483633851408958,-0.010013298361748456,0.01822181232385337
1638746697849700000,2.2747001953125,0.10260171181857586,0.000181274851039052,0.014634583220537751
1638746697859721700,2.2847216796875,0.09512041615247725,-0.0032247342001646756,0.0103205833457876
1638746697869743900,2.294743896484375,0.09466741168797016,-0.00255311854891479,0.0064719268273096524
1638746697879764700,2.3047646484375,0.10033961210548877,0.003957213193178177,-0.0028878121296875177
1638746697889786600,2.31478662109375,0.09225918150246143,0.0028246289666742086,-0.005947418896015733
1638746697899807700,2.324807861328125,0.0879120922088623,0.009311945159360766,-0.006795724554732442
1638746697909830000,2.334829833984375,0.08970482084453106,0.01038731930591166,-0.008384802110772579
1638746697919850800,2.344850830078125,0.09328794002830981,0.005276040706783533,-0.005248659509513527
1638746697929872600,2.35487255859375,0.08789338750839233,0.01881656334660947,-0.0006242876444943248
1638746697939893800,2.364893798828125,0.08534078041613101,0.018367869731038808,-0.003733450907282531
1638746697949915600,2.37491552734375,0.09909984117746352,0.02072488118596375,0.0014850143933668731
1638746697959936800,2.384936767578125,0.0979068320006132,0.02340864037722349,0.0005348557953722775
1638746697969958000,2.3949580078125,0.08982347878813743,0.022919687816500663,-0.002198514691274613
1638746697979979800,2.404979736328125,0.09776771579086779,0.02203442941457033,-0.0002542122230865061
1638746697990000600,2.415000732421875,0.09598667759299277,0.024377485409379004,-0.000321450506709516
1638746698000022500,2.4250224609375,0.08909808712303638,0.01837517625465989,-0.0048820729531347746
1638746698010043600,2.435043701171875,0.08955284515321255,0.015760317581146953,0.0006015826223418116
1638746698020065800,2.445065673828125,0.10242752429544925,0.016457213804125785,-0.01210252572596073
1638746698030086700,2.455086669921875,0.09539163430929183,0.010391922415792941,-0.011099869755748658
1638746698040108800,2.46510888671875,0.09240122032165526,0.003917027313262224,-0.004541698550246656
1638746698050129700,2.475129638671875,0.09899988793432712,0.0034195261199027297,-0.0067160012488719075
1638746698060151800,2.48515185546875,0.09497603924572467,-0.0019166472762823105,-0.008015566939581185
1638746698070172700,2.495172607421875,0.09632745385468006,-0.001038914593681693,-0.008984211042337119
1638746698080194800,2.50519482421875,0.09739537534713745,-0.007887026922777294,0.003509907817095518
1638746698090215700,2.515215576171875,0.09904898777306079,-0.0027391426403075457,0.001514952873904258
1638746698100237800,2.52523779296875,0.10428630390465259,-0.004977715347334742,-0.0006929507002234459
1638746698110259000,2.535259033203125,0.10054536381065846,-0.006599325199797749,0.0015098931062966583
1638746698120280800,2.54528076171875,0.09546879119873046,-0.0008972411006689071,0.000440428110724315
1638746698130301700,2.5553017578125,0.09665770872235298,0.002697568520903587,0.011503262924868612
1638746698140323600,2.565323486328125,0.09336509691774844,0.005147665086761117,0.00001530716698616743
1638746698150345000,2.575344970703125,0.095924718272686,0.009427972754463552,-0.015380451418086886
1638746698160366800,2.585366943359375,0.10325111563801764,-0.0009594926819205283,-0.005086746946070343
1638746698170387700,2.5953876953125,0.10638882914185524,0.0005912438914179802,-0.002760477689281106
1638746698180409600,2.60540966796875,0.09142097711265086,0.0010660217963159083,-0.0044388318308163435
1638746698190430700,2.6154306640625,0.08841770364344119,0.007202478724718094,-0.018081563602946698
1638746698200452900,2.625452880859375,0.09380641094446182,0.007029679441079497,-0.011209677672619
1638746698210473700,2.6354736328125,0.10097732548713684,0.005407412001490593,-0.01407401759517379
1638746698220494800,2.645494873046875,0.09678805710375309,0.008985051292553543,-0.011697726051043718
1638746698230516700,2.655516845703125,0.08722410994470119,0.012864376943930982,-0.006007688582735136
1638746698240537600,2.66553759765625,0.09798457341194153,0.011849939204379916,-0.006848459388967603
1638746698250559700,2.675559814453125,0.09587444939017295,0.01060585742741823,-0.002887410270888358
1638746698260580900,2.685580810546875,0.09558277296721934,0.015001315907388924,-0.012354783453978597
1638746698270602800,2.695602783203125,0.10874854401051998,0.011055427825823425,-0.01420008252710104
1638746698280623600,2.70562353515625,0.09138707484304905,0.013971534468233585,-0.003799209619872272
1638746698290645800,2.715645751953125,0.09857318695485591,0.017865838493034244,-0.0038694801107980307
1638746698300667000,2.7256669921875,0.09542845918834209,0.007430076935514807,0.006473068471625447
1638746698310688800,2.735688720703125,0.0976630863726139,0.010785378712788224,0.01762781935292296
1638746698320709600,2.745709716796875,0.09284136530458927,0.01128667929843068,0.031510625224933024
1638746698330731500,2.7557314453125,0.10057751251459121,0.020811609621345997,0.06306793000265024
1638746698340753000,2.7657529296875,0.1030482865422964,0.03038797787055373,0.09809163224929943
1638746698350774800,2.77577490234375,0.10265139617919922,0.023286840628460048,0.09056752948793582
1638746698360795600,2.785795654296875,0.14177052364647388,-0.01952646518163383,0.020173795774998143
1638746698370817500,2.795817626953125,0.20845278082191943,-0.05495886696018278,-0.11988379560690372
1638746698380838700,2.805838623046875,0.2444914779305458,0.04083769488818943,-0.02919449376966804
1638746698390860800,2.81586083984375,0.19914836138188838,0.08182933822907507,-0.05324842804679647
1638746698400881700,2.825881591796875,0.12624737582206724,0.10765198094546795,-0.11762997053181752
1638746698410903800,2.83590380859375,0.04386836782097816,0.07999313577786088,-0.11800119673069566
1638746698420924700,2.845924560546875,-0.018509470158815385,-0.024817630392313002,-0.1064565058168955
1638746698430946800,2.85594677734375,-0.00576046322286129,-0.08207016124762594,-0.09866515782093628
1638746698440967700,2.8659677734375,0.02451192544400692,-0.08947188887149095,-0.11120795639399439
1638746698450989800,2.87598974609375,0.048804070657491684,-0.06647825903594494,-0.11116711292695254
1638746698461010700,2.8860107421875,0.08692074308395385,-0.02866312683932483,-0.06173336606379598
1638746698471032600,2.896032470703125,0.09499415942430496,0.0017171061161905525,-0.022123642067983746
1638746698481054000,2.906053955078125,0.06656944445073604,-0.0012308569692075252,0.014735102719254791
1638746698491075800,2.916075927734375,0.0439800115019083,-0.03841032161079347,0.07131533293672837
1638746698501096700,2.9260966796875,0.09809972422420978,-0.07016973396502435,0.09435050035906024
1638746698511118600,2.93611865234375,0.11644552825391292,-0.07126973109617829,0.07596198056563734
1638746698521139700,2.9461396484375,0.1259843409717083,-0.05536021430268884,0.06103204939402639
1638746698531160800,2.956160888671875,0.09092822515964508,-0.004264452511444688,0.03968448799876496
1638746698541182700,2.9661826171875,0.07966273477971553,0.023083427010849117,0.0699183804193046
1638746698551203800,2.976203857421875,0.07052022790312766,0.04895524263121188,0.09219992559589445
1638746698561225700,2.986225830078125,0.09519932660758494,0.06747545337975025,0.0878733493673615
1638746698571246600,2.99624658203125,0.09442015892863273,0.08073350581638515,0.056467344427527856
1638746698581268700,3.006268798828125,0.08612813140153884,0.07518843890987337,0.03455423070453107
1638746698591289900,3.016289794921875,0.08246668628454208,0.06439991839192807,0.0332160591696389
1638746698601311700,3.026311767578125,0.10036708463430404,0.058908189107850194,0.031932878358149897
1638746698611332600,3.03633251953125,0.10722294187843799,0.043778059189021584,0.02549329203101806
1638746698621354800,3.046354736328125,0.11334113249778748,0.04618519339598715,-0.00011927899811416863
1638746698631376000,3.0563759765625,0.10256839407086371,0.06150982297360897,0.0030871158277615903
1638746698641397800,3.066397705078125,0.08537818981707096,0.06967471698969602,-0.0007317300743423402
1638746698651418600,3.076418701171875,0.07672551228404044,0.08856807189956308,0.009145539083890616
1638746698661440800,3.086440673828125,0.08062778041958808,0.0805832836907357,-0.00808712520529516
1638746698671462000,3.0964619140625,0.08645487913787364,0.059999929867312306,-0.023389004094991832
1638746698681483800,3.10648388671875,0.08299041789770126,0.029403204616904256,-0.03986613730913959
1638746698691504600,3.116504638671875,0.06875672536194324,0.0015599427931010722,-0.07468290967368521
1638746698701526500,3.126526611328125,0.07158288869857787,-0.022874460435286164,-0.08072266476196237
1638746698711548000,3.1365478515625,0.0645405689716339,-0.037326910288259386,-0.06202321585584432
1638746698721569800,3.14656982421875,0.08999123657047749,-0.06852912715114652,-0.035999835536116735
1638746698731590700,3.156590576171875,0.10215279900729655,-0.08147029565833508,-0.0073373206181451675
1638746698741612800,3.16661279296875,0.11326982082724571,-0.07641549648679792,-0.0008565072314813733
1638746698751633700,3.176633544921875,0.12632920888662338,-0.07081438854411244,0.003397423885948956
1638746698761655800,3.18665576171875,0.1340133336484432,-0.04525763022229075,-0.011583360690064727
1638746698771676700,3.1966767578125,0.1169774431735277,-0.0036553807023912664,-0.02436172158466652
1638746698781697800,3.20669775390625,0.0949883142054081,0.02639130944982171,-0.025444621450547128
1638746698791719700,3.2167197265625,0.09691431383192539,0.041391894704848525,-0.029374343848600982
1638746698801741800,3.226741943359375,0.08459259239733219,0.04303425508439541,-0.04263409505197778
1638746698811762700,3.2367626953125,0.07734276739954948,0.017609379513934254,-0.0432384176206775
1638746698821783800,3.24678369140625,0.08670271641910075,0.004234203503653407,-0.03237403712123632
1638746698831805700,3.2568056640625,0.09009703503251075,-0.0110815851803869,-0.020447744745016098
1638746698841826600,3.26682666015625,0.09754442842900753,-0.02983122077062726,-0.008730784270539879
1638746698851849000,3.276848876953125,0.10427870512008666,-0.03697203243598342,-0.012085464993305504
1638746698861868800,3.286868896484375,0.12255319747924803,-0.036590412707254286,-0.014186656789947301
1638746698871891000,3.296890869140625,0.10987550221383571,-0.027621216570958493,-0.0054701202404685316
1638746698881912000,3.306912109375,0.09016776218116283,-0.00876293297447264,-0.011492038277955726
1638746698891934000,3.316933837890625,0.08449147011041641,0.0114508568841964,-0.027875647989753633
1638746698901954800,3.326954833984375,0.09107669371962547,0.011147782284393906,-0.01645314041720703
1638746698911976700,3.336976806640625,0.0945125133872032,0.014399842882901429,-0.018143321993853895
1638746698921998000,3.346998046875,0.09537877482771873,-0.00256020587682724,-0.03313826295938343
1638746698932020000,3.35702001953125,0.09563771802484988,-0.017888123390078545,-0.028638467322103678
1638746698942040800,3.367040771484375,0.10831775137782096,-0.03415799792855978,-0.020277055220073087
1638746698952062700,3.377062744140625,0.10545125603079795,-0.04933014035820961,-0.007443046014942228
1638746698962083800,3.387083740234375,0.10066343723237514,-0.03742437931336462,0.019549444198422132
1638746698972106000,3.39710595703125,0.10860533614754676,-0.01606324605047703,0.03249788269661367
1638746698982126800,3.407126953125,0.09513561372160911,-0.004854381228610873,0.03859939617579802
1638746698992149000,3.41714892578125,0.09110708885788917,-0.017019889188185332,0.050815392213594164
1638746699002169900,3.427169921875,0.08422317456305027,-0.010251637162268162,0.054399342514434824
1638746699012192000,3.43719189453125,0.08930150074064731,-0.0016882453478872775,0.045527195278136055
1638746699022212900,3.447212890625,0.09375380397439002,-0.005727218540385365,0.038202377948537466
1638746699032235000,3.457235107421875,0.09731588037014006,0.006081511870771646,0.018701540398504583
1638746699042256000,3.467255859375,0.10642623854279518,0.018421938005834818,0.0025411175838671624
1638746699052276700,3.47727685546875,0.09534136542677879,0.023888313652947545,-0.007549173270538449
1638746699062299100,3.487299072265625,0.09008359102904796,0.02436652562394738,-0.011656791252456604
1638746699072320000,3.497320068359375,0.09185703044235706,0.03381831764541566,-0.004343381232861429
1638746699082342000,3.507341796875,0.09289747940599918,0.04411730108074843,-0.011442700977204366
1638746699092363000,3.517363037109375,0.08750701853930949,0.052446226552128786,-0.00808003787738271
1638746699102385000,3.527385009765625,0.08286825282275677,0.06287519304268062,0.004077305042045191
1638746699112406000,3.537406005859375,0.09708440970182418,0.055563554855063556,-0.019025931780971585
1638746699122428000,3.547427978515625,0.11475275286138056,0.03258300369679928,-0.04882897676988505
1638746699132449000,3.557448974609375,0.11014029062986373,0.020149200189858673,-0.06679756325134076
1638746699142471000,3.567470947265625,0.09399754960238933,0.02171747241988778,-0.06456599567383528
1638746699152491800,3.57749169921875,0.0827922649770975,0.010831775137782097,-0.05728100803112611
1638746699162514000,3.587513916015625,0.07833236295878887,0.016437705386057495,-0.03271535223904066
1638746699172535000,3.59753515625,0.08358195405006408,0.023281433800980446,-0.017649419263377784
1638746699182557000,3.607556884765625,0.0997545056939125,0.02906169770285487,0.022417145121842622
1638746699192577800,3.617577880859375,0.1156225214332342,0.030611338297650215,0.0582895640191622
1638746699202600000,3.627599853515625,0.10587269631326197,0.01834682694301009,0.09717742174752056
1638746699212621000,3.63762109375,0.13726561344265936,-0.014282353983074425,0.10714916425617411
1638746699222643000,3.647642822265625,0.14383622400462626,-0.041871056523919106,0.10708271142384036
1638746699232663800,3.657663818359375,0.11149813497960567,-0.04740158344842493,0.06503830762701109
1638746699242685700,3.667685791015625,0.08905190989375114,-0.037932694161683315,0.0343961357996799
1638746699252707000,3.67770703125,0.055688569474220274,-0.021581059623882175,-0.0019991379279643297
1638746699262729000,3.68772900390625,0.059116790357232094,-0.008215455159544945,-0.03402034302353859
1638746699272749800,3.697749755859375,0.0758604198873043,0.0018113602709025143,-0.05041944256541319
1638746699282771700,3.707771728515625,0.10710662202239037,0.015629676938802003,-0.0711005394085776
1638746699292792800,3.717792724609375,0.11722586497664451,0.0281464825540781,-0.059455027601961044
1638746699302814000,3.72781396484375,0.10351181240081786,0.03084332042261958,-0.07467524695703759
1638746699312835800,3.7378359375,0.09787351425290107,0.04943250475414097,-0.08091898191850631
1638746699322858000,3.74785791015625,0.0919423706382513,0.02285568266957998,-0.021872918709926307
1638746699332878800,3.75787890625,0.0932101986169815,0.005066489609330893,0.026224282319843768
1638746699342899700,3.767899658203125,0.11396481735408305,0.03765387722030282,0.06475404732553287
1638746699352921900,3.777921875,0.11617489461898803,0.03727072312161326,0.09071352296303957
1638746699362943000,3.78794287109375,0.11361936491727828,0.037267654381692404,0.04593963940339163
1638746699372964900,3.79796484375,0.10881868663728236,0.06629376931451261,0.0130643199628219
1638746699382985700,3.80798583984375,0.08530980075597762,0.04795680617839098,0.02186201372342184
1638746699393007900,3.8180078125,0.06406184554398059,0.003158390965685248,-0.00994567648563534
1638746699403029000,3.828029052734375,0.08647709096968173,0.022699907585978507,-0.02139064248516224
1638746699413051000,3.83805078125,0.10377543177306651,0.01892367698289454,0.005811627154517918
1638746699423071700,3.84807177734375,0.1210819558829069,0.02724544206112623,0.001933717142092064
1638746699433094000,3.858093994140625,0.11861527350842951,0.03513721822425723,-0.020911727261263877
1638746699443115000,3.868114990234375,0.09503449143469334,-0.008659545665234327,0.007772862491197884
1638746699453137000,3.878136962890625,0.09289104966521262,0.005521174574270844,0.023495788937713948
1638746699463158000,3.888157958984375,0.09327858767807483,0.02185249697640538,0.022706593055091796
1638746699473180000,3.898179931640625,0.08733926075696945,-0.02726648484915495,0.0239194211772643
1638746699483200800,3.90820068359375,0.1022118357181549,-0.02732888256087899,0.0419253622607328
1638746699493223000,3.918222900390625,0.09824527017474174,-0.02200228071063757,0.06026285511981695
1638746699503244000,3.928244140625,0.14413900634348392,0.054834071536734696,0.07844811655925586
1638746699513266000,3.938265869140625,0.1556423971325159,0.07125818678885698,0.09150376915843225
1638746699523286800,3.948286865234375,0.12432488332688808,0.048610447781533,0.07356662812801078
1638746699533309000,3.958308837890625,0.10499415991306305,0.04113755461759865,-0.042263910032715644
1638746699543330000,3.968330078125,0.08776771530210971,0.02732727512568235,-0.10584164358787237
1638746699553352000,3.97835205078125,0.09339724562168121,-0.05077135214246809,-0.22316256643682716
1638746699563372800,3.988372802734375,0.08375789513885974,-0.11925554417334497,-0.2104487404121086
1638746699573395000,3.99839501953125,0.060223290294408795,-0.12641966364905238,-0.17227646534088997
1638746699583416000,4.008416015625,0.020296938097476958,-0.11941234217025339,-0.10890164307984523
1638746699593437000,4.01843701171875,0.024683774879574773,-0.07238646016642451,-0.06922490912927315
1638746699603458800,4.028458740234375,0.059440030962228774,-0.06707169488444924,-0.033128645747667176
1638746699613480000,4.03847998046875,0.07556348276734352,-0.11006079565286636,0.00935024960944429
1638746699623502000,4.048502197265625,0.10847791037559508,-0.011486512719467282,0.03051211570687592
1638746699633523000,4.05852294921875,0.07771803045272827,0.037569559937715526,0.09429563749982044
1638746699643544800,4.068544921875,0.04343640614449978,-0.023451675801351664,0.12127313107345253
1638746699653566000,4.07856591796875,0.06196224291622638,-0.07274038817062974,0.1465351624987088
1638746699663587800,4.088587890625,0.09116028034985064,-0.12330065484568475,0.14201962130302562
1638746699673609000,4.09860888671875,0.0978372738957405,-0.13318316643461584,0.07674617147957906
1638746699683630800,4.108630859375,0.1085644196152687,-0.0982734002906829,0.025997560891881582
1638746699693652000,4.11865185546875,0.1307633919417858,-0.03871427299343049,-0.045696112971100954
1638746699703673900,4.128673828125,0.12292436887919903,0.0026446692898869513,-0.05208175888760015
1638746699713694700,4.13869482421875,0.09384791199862956,0.010444821646809578,-0.019793774348311127
1638746699723716900,4.148716796875,0.08192892614603042,0.007947744134068489,0.014957915157079695
1638746699733738000,4.158738037109375,0.07716507274508476,-0.01804404460415244,0.0244702965256758
1638746699743760000,4.168759765625,0.09182605078220367,-0.02186382208801806,0.0423823853132315
1638746699753780700,4.17878076171875,0.12131342655122279,0.04803250176310539,0.03223340480783954
1638746699763803000,4.188802978515625,0.1180406884908676,0.11782470765262841,0.03649078825768083
1638746699773824000,4.198823974609375,0.0969832874149084,0.0868853064443916,0.010949629363790153
1638746699783846000,4.208845947265625,0.09451485147476196,0.057760991834104054,0.025518800931610165
1638746699793866800,4.21886669921875,0.08158756536245346,0.0237307119384408,-0.043103100803215055
1638746699803889000,4.228888916015625,0.0869277573466301,0.006051774319633841,-0.061292362564336504
1638746699813910000,4.238909912109375,0.10285130266547203,0.04010682333037257,-0.07818475291533396
1638746699823932000,4.248931884765625,0.09062076664566993,0.05100238441936671,-0.07987016698531806
1638746699833953000,4.258953125,0.1046077909439802,0.04137026739493012,-0.09241764173349365
1638746699843974000,4.268973876953125,0.10637538513839244,0.047519656870141626,-0.07917442153980955
1638746699853995800,4.278995849609375,0.106773444545269,0.03873853065185249,-0.11172197033073752
1638746699864017200,4.28901708984375,0.10100947419106959,0.04978489838838577,-0.09450582791808992
1638746699874039300,4.299039306640625,0.08236322591006755,0.04587115901075303,-0.10229673752263188
1638746699884060400,4.309060302734375,0.07103168455660343,0.017238573440164325,-0.09523936635702848
1638746699894082300,4.319082275390625,0.09742869309484958,0.025173969549313186,-0.12162362501155584
1638746699904103200,4.329103271484375,0.13027414712011814,0.026952085137739775,-0.12328359411302953
1638746699914125600,4.33912548828125,0.1435217512279749,0.027433219718188045,-0.10408206830313428
1638746699924146400,4.349146484375,0.12206862883269787,0.03317088658735156,-0.09954082641061394
1638746699934168300,4.359168212890625,0.08130290320217609,0.03398848658055067,-0.08323010840509086
1638746699944189200,4.369189208984375,0.06295885273814202,0.07949665749780833,-0.00562092688800767
1638746699954211600,4.379211669921875,0.05597556972205638,0.11249912871569394,0.10872901732614264
1638746699964232400,4.389232421875,0.07514847222566604,0.07974076845198869,0.15247467208290472
1638746699974254300,4.39925439453125,0.12756664172708987,0.06653152359314263,0.1735055139455013
1638746699984275500,4.409275390625,0.18015023092329502,0.09304908977113664,0.16954362457720562
1638746699994297300,4.41929736328125,0.1814186434239149,0.10825301557853817,0.1125991002251394
1638746700004318500,4.429318359375,0.12790332633554935,0.07938274879455566,0.03713029173761606
1638746700014340400,4.43934033203125,0.07064180845618248,-0.0007169160977005958,-0.03910480668097734
1638746700024361500,4.449361572265625,0.06561784281432628,0.0030314035851508377,-0.0704526608259417
1638746700034383400,4.45938330078125,0.08017594499886035,-0.003501505314931273,-0.06915746991625055
1638746700044404200,4.469404296875,0.062684711971879,-0.10315298902578651,-0.02564100253917277
1638746700054426400,4.47942626953125,0.09338613970577717,-0.10638225327059626,-0.015190116477757691
1638746700064447500,4.489447509765625,0.11362813274562358,-0.05738616717234254,0.04226889673508703
1638746700074469400,4.499469482421875,0.0967740285784006,-0.0655997957009822,0.07321845401115715
1638746700084490200,4.509490234375,0.06854279035031795,-0.08606938695162535,0.10036346790511161
1638746700094512400,4.519512451171875,0.07844809829294681,-0.0813414816468954,0.10871080581601708
1638746700104533500,4.529533447265625,0.10693243449926376,-0.03700476566180587,0.12396503703854977
1638746700114555400,4.539555419921875,0.10368541540205478,-0.02630735749341547,0.06632306847423315
1638746700124576300,4.549576171875,0.09077274233698844,-0.043634412934631106,0.0247153573279269
1638746700134597400,4.559597412109375,0.09492752392888068,-0.026314006429910657,-0.0012919395066797732
1638746700144619500,4.56961962890625,0.10044833317697048,-0.01981609577797353,-0.03870316707752645
1638746700154640400,4.579640380859375,0.1028086325675249,0.002023760912567377,-0.03535919041186571
1638746700164662300,4.589662353515625,0.08720774333178996,0.016162395576015114,-0.02406164265954867
1638746700174683400,4.599683349609375,0.06682312695086003,0.06088314244262874,-0.006078333532996475
1638746700184705300,4.609705322265625,0.07084697563946246,0.09856675721406936,0.022587204459123312
1638746700194726400,4.619726318359375,0.09538111291527747,0.07722688593491911,0.028533399512432514
1638746700204748300,4.629748291015625,0.12051029347479343,0.06108502169027924,0.06371469434043392
1638746700214769400,4.639769287109375,0.1368453422039747,0.0686760613411665,0.07582385073658078
1638746700224791300,4.649791259765625,0.10543839654922485,0.016099194146692752,0.026361316170357165
1638746700234812200,4.659812255859375,0.10189502485394478,-0.0030187632992863655,0.02858098324751481
1638746700244834300,4.669834228515625,0.09161679194569587,0.016474968656525014,0.03405439142361283
1638746700254855400,4.67985546875,0.07253039868175983,0.017819807394221423,-0.011273217028658836
1638746700264877300,4.689877197265625,0.06723053870797156,-0.07009615727216005,-0.10331102913171053
1638746700274898200,4.699898193359375,0.10112170239388941,-0.05152282809689641,-0.10748279839102177
1638746700284920600,4.709920654296875,0.12889642902612686,0.03937354061976075,-0.05927802706724032
1638746700294941400,4.71994140625,0.1394511407881975,0.009007555385306476,-0.14198666888149455
1638746700304963300,4.72996337890625,0.08381985445916652,0.025048662669211623,-0.09901479324251412
1638746700314984400,4.739984375,0.056150341767072676,0.0958254956819117,-0.027625417822040615
1638746700325006300,4.75000634765625,0.05961363396346569,0.08499781219735741,-0.06899871742427349
1638746700335027500,4.76002734375,0.06381459278464317,0.04005794268734753,-0.04977412126604467
1638746700345049300,4.77004931640625,0.08670271641910075,0.0017173983771353958,-0.019793628217838703
1638746700355070500,4.780070556640625,0.12278934432268142,-0.015597966626286507,0.02442976358588785
1638746700365092400,4.79009228515625,0.12300970907509326,-0.030604616295918822,0.09366977895274758
1638746700375113200,4.80011328125,0.1031792194455862,-0.04380348589122295,0.15251617313707247
1638746700385134300,4.81013427734375,0.08440554539263248,-0.07092968548685312,0.13458784560076892
1638746700395156500,4.820156494140625,0.09680442371666431,-0.06485818355344236,0.11527997333956881
1638746700405177300,4.83017724609375,0.107692897477746,-0.08026428086943924,0.015357545466534792
1638746700415199200,4.84019921875,0.10149871901273727,-0.06738353731259704,0.004516326646972447
1638746700425220400,4.850220458984375,0.10037059176564216,-0.011873283547349274,-0.025534802218340334
1638746700435242500,4.860242431640625,0.08680266966223717,-0.005334858221933246,-0.043070769436191765
1638746700445263400,4.870263427734375,0.08473463121652602,0.029937457624077794,-0.014847330922074615
1638746700455285200,4.88028515625,0.10195523060858248,0.08632412889767438,-0.0181123058010824
1638746700465306400,4.890306396484375,0.09744213709831237,0.1064709909999743,0.002992898205667734
1638746700475328500,4.90032861328125,0.08888649019896984,0.1066674268875271,0.01652205920126289
1638746700485349400,4.910349365234375,0.0722574269592762,0.08840678039062767,0.054629233147017654
1638746700495371300,4.920371337890625,0.08629881179332732,0.0651419689308852,0.05097102116672322
1638746700505392400,4.930392333984375,0.09065876056849956,0.034732290685176845,0.04888904552720487
1638746700515414500,4.94041455078125,0.08920914628207684,-0.017038301627710462,0.0143469801845029
1638746700525435400,4.950435302734375,0.1184638823390007,-0.04019497653786093,-0.03873401887351647
1638746700535457300,4.960457275390625,0.11154197412133217,-0.05737867798563093,-0.07187681187754497
1638746700545478400,4.970478515625,0.10073650246858597,-0.07510934579167515,-0.06108951520230621
1638746700555500300,4.980500244140625,0.09784837981164454,-0.07545520008727907,-0.11507750957002863
1638746700565521400,4.990521484375,0.07309680039286613,-0.008487367436103522,-0.024592918258346617
1638746700575543300,5.000543212890625,0.07646306195557118,0.03567161736190319,-0.023580526345409452
1638746700585564400,5.010564453125,0.0705313338190317,-0.005280424620956182,-0.04769948868276551
1638746700595586300,5.02058642578125,0.09644903440773486,-0.029671792425215244,-0.04978727300856262
1638746700605607200,5.030607177734375,0.12596271366178988,-0.0029058775093406437,-0.05818212158931419
1638746700615629300,5.04062939453125,0.1173047754317522,0.004516965967789292,-0.12480583524424582
1638746700625650400,5.050650390625,0.10398410608768463,0.018998313121683895,-0.06341689870394766
1638746700635672300,5.06067236328125,0.1095101760327816,0.06572228956948965,-0.08372547244029119
1638746700645693200,5.070693115234375,0.08812778078615664,0.06550835455786437,-0.024022662356030195
1638746700655714300,5.08071435546875,0.10147416909337043,0.1028815151406452,0.015615246554650365
1638746700665736400,5.090736328125,0.07857435502111912,0.0898779123891145,0.04730100915078073
1638746700675757300,5.10075732421875,0.07452186475992202,0.03391596933361143,0.020506653591711072
1638746700685779500,5.110779541015625,0.06494388907551765,0.02242072531841695,0.09268858589567243
1638746700695800300,5.12080029296875,0.055821840465068814,0.011875804297998546,0.04696889111958444
1638746700705822500,5.130822509765625,0.06749649616777896,0.01110777906756848,0.04826344270845875
1638746700715843300,5.14084326171875,0.09565466915965079,0.02007335847467184,0.05691566358376294
1638746700725865500,5.150865478515625,0.12784545866847039,-0.013748283638991415,0.01956866035554558
1638746700735886300,5.16088623046875,0.1183113221257925,-0.08673716667797415,-0.02484280136618763
1638746700745908200,5.170908203125,0.09366261855959891,-0.07601049588248134,-0.09134442301141098
1638746700755929300,5.180929443359375,0.10071487515866756,-0.007942191176116466,-0.1341460383837111
1638746700765951500,5.190951416015625,0.08228957615196704,-0.02520626438371837,-0.17268634304972363
1638746700775972400,5.200972412109375,0.10828034197688102,0.027710136963427064,-0.16707356293555348
1638746700785994200,5.210994140625,0.09550444703400135,0.06143237382322549,-0.055795646577887235
1638746700796015400,5.221015380859375,0.08106324922740459,0.09325564519390463,-0.0881756567821838
1638746700806037500,5.23103759765625,0.0489250666886568,0.019547946361079812,0.056959027801454065
1638746700816058400,5.241058349609375,0.062417585468292236,-0.0643656507961452,0.07036806954871863
1638746700826080300,5.251080322265625,0.08494564361870288,-0.11464414138775318,-0.009058427056018262
1638746700836101400,5.261101318359375,0.08572013512253761,-0.13159352262299506,-0.0064122964614070944
1638746700846123500,5.27112353515625,0.11192483595907687,-0.08183788686171174,-0.10566204923726617
1638746700856144400,5.281144287109375,0.11164192736446857,-0.05334379644636064,-0.08168267803369089
1638746700866165800,5.291165771484375,0.09998188470900059,0.010343005240149795,0.026660079921223222
1638746700876187000,5.301186767578125,0.12007307110130787,0.11280552778374403,0.08821480148248374
1638746700886208800,5.311208740234375,0.0954758054614067,0.14504176386948675,0.06133850326100364
1638746700896229600,5.321229736328125,0.06631342386305332,0.11313191019389778,0.09832785215796902
1638746700906250800,5.331250732421875,0.08547580497264862,0.0646093964241445,0.04225088615436107
1638746700916273000,5.34127294921875,0.08861702560782432,-0.038295061200670895,-0.016366521579679102
1638746700926293800,5.351293701171875,0.08389233517348765,-0.12848919993210584,-0.013144874385744333
1638746700936315600,5.361315673828125,0.10044950222074985,-0.10955996999125928,-0.015860581351537256
1638746700946336800,5.371336669921875,0.08726035030186176,-0.07582743093315511,0.05295282436739653
1638746700956358700,5.381358642578125,0.0819037917047739,-0.07944036073330789,0.03931454044152051
1638746700966379800,5.3913798828125,0.09244564398527144,0.0033586993107572196,0.050361054308526214
1638746700976402000,5.40140185546875,0.08783493531942367,0.033921010834909976,0.032372886343766005
1638746700986422800,5.4114228515625,0.09352291782796382,-0.002536094348877668,-0.007064622890297323
1638746700996444700,5.421444580078125,0.14362404255867003,0.060157750777527684,-0.03174841603618115
1638746701006465800,5.4314658203125,0.1703255870014429,0.1313951139740646,-0.06799407042637468
1638746701016488000,5.441488037109375,0.12966682887673378,0.11499087246619165,-0.11868176287338136
1638746701026508800,5.4515087890625,0.097959438970685,0.006072122987918555,-0.20759086676295846
1638746701036530700,5.46153076171875,0.11217793393731117,-0.03802256440222263,-0.2583820561170578
1638746701046551800,5.4715517578125,0.08995207360386848,-0.03044664925523102,-0.2033100659049116
1638746701056574000,5.481573974609375,0.06069675302505493,-0.02042352361921221,-0.1903159251014702
1638746701066594800,5.4915947265625,0.04622340651452541,-0.038613077641278505,-0.12448694202080368
1638746701076616700,5.50161669921875,0.051534956926107406,-0.0631652985630557,-0.004717676171660423
1638746701086637800,5.511637939453125,0.08250351116359234,-0.013174100480228662,0.09892358956141396
1638746701096660000,5.521659912109375,0.10031330862045287,0.09928360024653375,0.17480028473008424
1638746701106680800,5.531680908203125,0.09561141453981399,0.12869199249520896,0.23025000394713133
1638746701116702700,5.54170263671875,0.06976327205598354,0.07499620427340269,0.293029901655484
1638746701126723800,5.551723876953125,0.10618483100235461,0.015426811310462652,0.37602486786413936
1638746701136745700,5.561745849609375,0.12981588195860386,0.005691489639878273,0.4366852709341794
1638746701146766600,5.5717666015625,0.11604220815002918,0.02652322873380035,0.40178847386967387
1638746701156788000,5.5817880859375,0.0739385119140148,0.010905205700173974,0.30689079708978534
1638746701166809900,5.591809814453125,0.10409341168105601,-0.012295491014793514,0.11655048646572977
1638746701176830700,5.601830810546875,0.1524403862208128,-0.024618710286729035,0.05345633517643437
1638746701186852600,5.6118525390625,0.193444012260437,-0.0023098113123327492,-0.20526540122376755
1638746701196873700,5.621873779296875,0.10282499918043612,0.010034816073812543,-0.1640847015841864
1638746701206895900,5.631895751953125,0.015171265646815299,0.05244648228045553,-0.03959282765993848
1638746701216916700,5.641916748046875,0.09083294809162616,-0.012457403578236699,-0.24123799255993217
1638746701226938600,5.651938720703125,0.16398235545456408,0.006587525164149701,-0.03589698708299547
1638746701236959700,5.661959716796875,0.07501227862536906,-0.14658194251619278,-0.2535369907060638
1638746701246982000,5.67198193359375,0.012404723542928695,0.020707491659745572,-0.07653196247331798
1638746701257002800,5.682002685546875,-0.006805003839731216,0.1265723334601149,0.038820619444735346
1638746701267024600,5.692024658203125,0.08193360232114791,0.08516929630674422,0.020777999612689016
1638746701277045800,5.702045654296875,0.16872282797992227,0.05092120894193649,-0.012783785988390445
1638746701287068000,5.71206787109375,0.15359130982160568,-0.00918937822561711,-0.13078173131607473
1638746701297088800,5.7220888671875,0.09807108265161514,-0.04487297828625887,-0.1377828057171777
1638746701307111000,5.73211083984375,0.08440320730507374,-0.01779445375725627,-0.047637474563531575
1638746701317131800,5.7421318359375,0.126259066259861,0.00387271324750036,0.05032218360286206
1638746701327153700,5.752153564453125,0.1563356400936842,0.04756773379556834,0.12566964899934827
1638746701337174800,5.7621748046875,0.13540566478967667,0.006477306255325675,0.15286094972044229
1638746701347197000,5.772197021484375,0.1360047997266054,-0.018008461834117768,0.14182495724745095
1638746701357217800,5.7822177734375,0.12149345929324626,-0.024715046800673008,0.14885061810053885
1638746701367239700,5.79223974609375,0.05899228719472885,-0.021035846831277013,0.12652232030592858
1638746701377260800,5.8022607421875,0.023564415460824967,-0.001472227977029979,0.08032529034167528
1638746701387282000,5.812281982421875,0.032872342032194135,0.02169675842542201,0.01219535510856658
1638746701397303800,5.8223037109375,0.09166355369687079,0.05062273745201528,-0.0800858190299943
1638746701407324700,5.83232470703125,0.13921031776964662,0.06485299592167139,-0.12161503984630107
1638746701417346800,5.842346923828125,0.140013450846076,0.06065207363311201,-0.08928487839940935
1638746701427367700,5.85236767578125,0.14560732533037662,0.024198329450190067,-0.04991579475905746
1638746701437389800,5.862389892578125,0.11362404109239578,-0.002522650345414877,-0.019763781068846582
1638746701447411000,5.872410888671875,0.08196808911263942,-0.01087608920354396,0.00031896628867834805
1638746701457432800,5.882432861328125,0.04915712187886238,-0.026216793133132157,0.03284771904759109
1638746701467453700,5.89245361328125,0.05977788461446762,-0.031276816469058395,0.06774225108977407
1638746701477475800,5.902475830078125,0.09304536344408988,-0.01975939715467393,0.07887677203379571
1638746701487497000,5.9124970703125,0.13308511288762093,-0.00717193745598197,0.07626604154612869
1638746701497518800,5.922518798828125,0.13091887476444244,0.006090791155770421,0.05574892135933041
1638746701507539700,5.932539794921875,0.11628361569046973,0.01580868676751852,0.02789594185911119
1638746701517561600,5.9425615234375,0.09263327551186085,0.026672647141851483,-0.008887984126247465
1638746701527583000,5.9525830078125,0.06852876182496548,0.028667766481824217,-0.027476364740170536
1638746701537604900,5.96260498046875,0.08928396508395671,0.02228219363056123,-0.043713432987593115
1638746701547625700,5.972625732421875,0.09341653484404086,0.02527943921778351,-0.04588668537344783
1638746701557647600,5.982647705078125,0.09949263988733291,0.016847966687381265,-0.022620229945890604
1638746701567668700,5.992668701171875,0.11290683273375034,-0.00449150273296982,-0.013004333403892815
1638746701577691000,6.00269091796875,0.0994014544725418,-0.01634465680774301,0.007671338345482945
1638746701587711700,6.012711669921875,0.09563596445918082,-0.011173683910630642,0.02597019796092063
1638746701597733600,6.022733642578125,0.09384966556429862,-0.015113471044972538,0.03966119845472276
1638746701607754800,6.032754638671875,0.11197627388536929,-0.011036467397026717,0.04503883637245744
1638746701617777000,6.04277685546875,0.11634499048888683,-0.0017219284217804668,0.050052280620299275
1638746701627797800,6.0527978515625,0.10560264720022677,0.012688581985607742,0.04095722961463034
1638746701637819600,6.062819580078125,0.10024082790613174,0.017659757994301615,0.015578494740836321
1638746701647840800,6.0728408203125,0.0945610287040472,0.024738719937205313,-0.01424059720057994
1638746701657861600,6.082861572265625,0.08376900105476379,0.017767346554622053,-0.031454036199487743
1638746701667883800,6.0928837890625,0.06921791313290596,0.02124740722272545,-0.03101385468393564
1638746701677905000,6.10290478515625,0.07606383350491523,0.02197433325778693,-0.022331293469294904
1638746701687926800,6.1129267578125,0.1016238066971302,0.018328268373012543,-0.011884133734926581
1638746701697947600,6.12294775390625,0.1116144548356533,0.011503500386886297,0.0009267229234799742
1638746701707969800,6.1329697265625,0.10920622465014457,-0.0005961392622441053,0.013638831915147602
1638746701717991000,6.142990966796875,0.10366554165780544,-0.0035464404352009296,0.021723573367111382
1638746701728012800,6.1530126953125,0.09169687144458294,-0.003947568581998348,0.025061193357221782
1638746701738033700,6.16303369140625,0.07151274607181549,-0.005279913164302707,0.015292152080126105
1638746701748055800,6.173055908203125,0.08140870166420935,0.006228592191264033,0.00958484381660819
1638746701758076700,6.18307666015625,0.10506371801793575,0.006632971741072833,0.0013269377548247574
1638746701768098800,6.193098876953125,0.09967442619502544,0.005183138258941471,-0.00673394789751619
1638746701778119700,6.20311962890625,0.09982698640823363,0.019533662107400596,-0.009363858009688556
1638746701788141800,6.213141845703125,0.11103344007730484,0.016373992500081657,-0.014099983153492212
1638746701798162700,6.22316259765625,0.10008242247402667,0.004763707270473242,-0.009580058043636382
1638746701808184800,6.233184814453125,0.08179916228652,0.009302629341743886,-0.0037493791287764905
1638746701818206000,6.2432060546875,0.09120236592590808,0.013517324427329003,0.0002174786755815148
1638746701828227800,6.253227783203125,0.09612579380273818,0.0011324380960315466,0.00854318927656859
1638746701838248700,6.263248779296875,0.09447159685492515,-0.00853427531775087,0.0006326718803495168
1638746701848270800,6.273270751953125,0.09864508314728736,-0.002406988076493144,-0.0003381459131836891
1638746701858292000,6.2832919921875,0.0961035819709301,-0.004073715712316334,0.014058409034088254
1638746701868313900,6.29331396484375,0.09908873526155948,0.0020279621636494992,0.011347506107576191
1638746701878334700,6.303334716796875,0.11151040993928908,-0.0009189780084416269,0.006883914294838905
1638746701888356900,6.31335693359375,0.10687632039785384,0.005284041350148618,0.011374686375446617
1638746701898378000,6.3233779296875,0.10627601641714572,0.0015344795582816005,0.00517104596234858
1638746701908398800,6.33339892578125,0.10073065724968909,0.008139065455086528,-0.002524367378465831
1638746701918420700,6.343420654296875,0.08664777136147021,0.009733568104915321,-0.002838365231081843
1638746701928441900,6.35344189453125,0.0700222152531147,0.0031849867116659878,0.00017689093686640262
1638746701938464000,6.363464111328125,0.09140870215296745,0.005371317774802446,0.001785495177283883
1638746701948484900,6.37348486328125,0.10846037471890449,0.009894019363634288,0.002850603658147156
1638746701958506800,6.3835068359375,0.10217033466398716,0.006249452316202223,-0.004416099409200251
1638746701968528000,6.39352783203125,0.09332944108247757,0.006734568952023983,-0.009184848180972038
1638746701978550000,6.403550048828125,0.10469196209609508,0.004402143949083984,-0.0041281493132933975
1638746701988571000,6.41357080078125,0.099153032669425,0.001080890571884811,0.009072985304333269
1638746701998592800,6.4235927734375,0.08508592887222767,0.0018268135683611035,0.010845401804335415
1638746702008614000,6.43361376953125,0.08822481141984462,0.007537628963217139,0.010787351474165915
1638746702018635800,6.4436357421875,0.09510638762712478,0.011406615883670746,0.009652465692721306
1638746702028657000,6.453656982421875,0.09600129064023494,0.011522387750446795,0.0002364391043782234
1638746702038678800,6.4636787109375,0.09450608364641666,0.0060808908162638545,-0.0020722031641751525
1638746702048700000,6.473699951171875,0.08657178351581096,0.012611644291877746,0.01025777464210987
1638746702058721800,6.4837216796875,0.09629647419452667,0.003412475324608385,-0.0055179231712594624
1638746702068742700,6.49374267578125,0.09958265625834464,0.003804908708296716,-0.010256386402621864
1638746702078764800,6.503764892578125,0.09852116450667381,0.002052329419925809,-0.012824629455432295
1638746702088786000,6.513785888671875,0.09731295776069164,0.0067826093448325984,-0.004014386740513146
1638746702098807800,6.523807861328125,0.0961252092808485,0.009086685036122798,-0.007738850623741745
1638746702108828700,6.53382861328125,0.08491115682721137,0.005891724919714033,-0.004534538157097995
1638746702118851000,6.54385107421875,0.10047112953066825,0.001297419399395585,0.0007104132916778325
1638746702128872000,6.553871826171875,0.10195581513047218,0.006785020497627556,0.008632876854017377
1638746702138892800,6.563892822265625,0.10644786585271358,0.0112449590485543,0.005081577580608427
1638746702148914700,6.573914794921875,0.08788052802681923,0.005804558092914521,0.014324001167714595
1638746702158935800,6.583935791015625,0.08982932400703429,0.011302169128507376,0.00837258195001632
1638746702168958000,6.5939580078125,0.09327624959051609,0.013328560389578342,0.009291961817257105
1638746702178978800,6.603978759765625,0.09971358916163443,0.015418335743062197,-0.002601414670050144
1638746702189001000,6.6140009765625,0.09312544294297695,0.005567132607847452,-0.026615071735717356
1638746702199021800,6.624021728515625,0.056149172723293304,0.008014416162110865,-0.04850793725512922
1638746702209044000,6.6340439453125,0.035035657545924186,0.02087342281118035,-0.04414590612072497
1638746702219064800,6.64406494140625,0.058957215881347655,0.011896920151263474,-0.02165664561074227
1638746702229087000,6.6540869140625,0.11475742903649806,0.009948124171048402,0.00989201006963849
1638746702239107800,6.66410791015625,0.17461539314985275,0.0116648649610579,0.024861213805712757
1638746702249129700,6.674129638671875,0.1713227813452482,-0.0030301249435171485,0.039524931789189574
1638746702259151000,6.684151123046875,0.10997603997886181,-0.016378376414254308,0.047434024413302536
1638746702269173000,6.694173095703125,0.06644026511311531,-0.004536693581566214,0.03005542144794017
1638746702279193900,6.70419384765625,0.043564416438341136,0.009522994094155728,0.0010788082126528024
1638746702289215700,6.7142158203125,0.048963060611486434,0.0137643945235759,-0.009742847389914095
1638746702299236900,6.72423681640625,0.08577683374583721,0.015588102819398045,-0.022623408283665776
1638746702309259000,6.734259033203125,0.12527531591951846,0.009267923354543744,-0.015519311899505554
1638746702319279900,6.74427978515625,0.14053367532789707,0.0004031739734113216,-0.00936612303201109
1638746702329301800,6.7543017578125,0.12166764681637286,0.007460800867341458,-0.0031597426725551484
1638746702339323000,6.764322998046875,0.10756138005256652,0.0023735607309266923,0.004156096766144037
1638746702349345000,6.774344970703125,0.08629062848687172,-0.005453041241504252,0.011184753293916582
1638746702359366000,6.784365966796875,0.0701356124997139,0.003742145670391619,0.00821819510590285
1638746702369387000,6.794386962890625,0.08541092304289341,-0.004047375694662333,0.02730604967456311
1638746702379409000,6.804408935546875,0.09575579144656658,0.0015081030080094932,0.017610767753422258
1638746702389429800,6.8144296875,0.0954588543266058,0.003288081759959459,0.010778181787021458
1638746702399452000,6.824451904296875,0.10623860701620579,0.008610884217917919,0.004248451224714517
1638746702409473000,6.83447314453125,0.10205459932982922,0.014827091851644218,-0.0007028875723481178
1638746702419495000,6.844494873046875,0.10458090293705463,0.015528152793087065,-0.010790675942413508
1638746702429515800,6.854515869140625,0.10336042123138904,0.00967847691681236,-0.004539104734361171
1638746702439537700,6.86453759765625,0.09182663530409335,0.009162745947018266,-0.00981653368063271
1638746702449559000,6.87455908203125,0.09659107322692871,0.009010441462136804,-0.008297470887191594
1638746702459581000,6.884580810546875,0.09268880509138107,0.0020139336382970214,-0.007049662783183157
1638746702469601800,6.894601806640625,0.10824059448838233,-0.004822597850859165,0.004244432636722922
1638746702479623700,6.904623779296875,0.09583002572655677,0.01509849267154932,-0.0007866933982819318
1638746702489644800,6.914644775390625,0.10361235016584396,0.0065680898113176225,0.013010726612061261
1638746702499667000,6.9246669921875,0.09075111502707003,0.005485628336854279,0.017353139730542897
1638746702509687800,6.934687744140625,0.10257949998676777,0.00435081562064588,0.013208368076011537
1638746702519710000,6.9447099609375,0.09240940362811088,0.0005188362423330545,0.008954765752144158
1638746702529730800,6.954730712890625,0.0943470936924219,0.011572802763432264,-0.0015113178784027694
1638746702539753000,6.9647529296875,0.0892494782924652,0.013050656763650477,-0.011891915182583033
1638746702549773800,6.97477392578125,0.09671674543321132,0.007311236328817904,-0.005404051000624895
1638746702559796000,6.9847958984375,0.09102584031522273,0.012377177948877214,-0.00197740102019161
1638746702569816800,6.99481689453125,0.0953542249083519,0.00842328922394663,0.010721848489902912
1638746702579838700,7.004838623046875,0.09550503155589103,0.0019156243629753589,0.004060563969798386
1638746702589859800,7.01485986328125,0.11375497399568557,0.005622333393804729,-0.002289572241902351
1638746702599882000,7.024882080078125,0.11584347070753574,-0.00038867052402347325,0.007460983530431986
1638746702609902800,7.03490283203125,0.09863806888461113,-0.01589205420203507,0.013231968147307633
1638746702619924700,7.0449248046875,0.0862350989073515,0.004844955813139677,0.003463767120428383
1638746702629945900,7.05494580078125,0.07560615286529064,0.01284943510312587,0.008691146379895508
1638746702639967000,7.064967041015625,0.09101356535553931,0.004367328364029526,-0.002295928917452693
1638746702649988900,7.07498876953125,0.10419102683663367,0.012288549817353486,0.0027965719159692526
1638746702660010000,7.085010009765625,0.10133914453685283,0.007996186385676264,-0.009637998775951563
1638746702670032000,7.095031982421875,0.09938567238152027,0.00979918068703264,-0.0041567543532699345
1638746702680052700,7.105052734375,0.09652736034095287,0.009620499651879071,0.00205200062636286
1638746702690075000,7.115074951171875,0.0993541081994772,0.0027926629258319736,-0.0058498220067471265
1638746702700096000,7.125095947265625,0.10129822800457478,0.005264350268989801,0.00836023392509669
1638746702710118000,7.135117919921875,0.08513269062340259,0.004326338766515255,-0.0037929625421762466
1638746702720138800,7.145138671875,0.08976678016483783,0.004881342300772667,0.0056756710162386296
1638746702730161000,7.155160888671875,0.10084639258384703,0.0022512495255097745,0.004061550350487232
1638746702740182000,7.16518212890625,0.11371639555096626,-0.002304112223908305,0.012066029640473425
1638746702750204000,7.175203857421875,0.12600246115028857,0.006334865577332675,0.021469635138660667
1638746702760224800,7.185224853515625,0.1065600940555334,0.01024487862791866,0.014522300218790769
1638746702770247000,7.195246826171875,0.08186229065060616,0.016758388707786797,-0.0078546590231359
1638746702780268000,7.20526806640625,0.0679389792382717,0.00992130922935903,-0.006185556767135858
1638746702790290000,7.2152900390625,0.08409224165976047,0.006811616243608295,-0.008576178230717778
1638746702800310800,7.225310791015625,0.09037059127688407,0.02270546054393053,-0.010196290245838463
1638746702810332700,7.235332763671875,0.10503215383589268,0.01523432094566524,0.0018508154984563589
1638746702820353800,7.245353759765625,0.1262713412195444,0.003369293770007789,0.007760441401042044
1638746702830376000,7.2553759765625,0.10711655889451503,0.0011177519835531711,0.010466814282909034
1638746702840396800,7.265396728515625,0.09605623569786548,-0.00011847528051584958,0.009605009821802377
1638746702850418700,7.275418701171875,0.09247837721109389,-0.011313932631537318,0.009336787339672446
1638746702860439800,7.285439697265625,0.08411328444778919,-0.005482486531697213,-0.0014402254035696387
1638746702870462200,7.295462158203125,0.06751403182446956,0.012788644826598465,-0.02022138864323497
1638746702880483000,7.305483154296875,0.050611996862292286,0.01084942039232701,-0.029101627854444086
1638746702890504200,7.315504150390625,0.07694061633944511,0.012534085543639956,-0.016218838470987974
1638746702900526300,7.3255263671875,0.12316402285397052,0.016888883219659326,0.006087064828723668
1638746702910547200,7.335547119140625,0.15098492671549318,0.009036452686227858,0.014126761562563478
1638746702920569000,7.345569091796875,0.13870938251018525,0.0013656623300164936,0.007425839151814579
1638746702930590200,7.355590087890625,0.0840735369592905,0.0005120411753654479,0.00800148361530155
1638746702940612400,7.3656123046875,0.060866264373064034,-0.003324395182356238,0.00796253984440118
1638746702950633200,7.37563330078125,0.05473930592536926,0.007970065563730895,0.01075220709554851
1638746702960655000,7.385655029296875,0.08692074308395385,0.0033100743960589167,0.007980038968473673
1638746702970676200,7.39567626953125,0.12627952452600003,-0.00035001901406794784,0.007677658488415181
1638746702980698400,7.405698486328125,0.1378051271468401,0.0055187268888577815,-0.003942490548081696
1638746702990719200,7.41571923828125,0.11371171937584876,0.004811236206628382,-0.01747406269647181
1638746703000741000,7.4257412109375,0.08946049069464206,0.005111351664364338,-0.023498802878707648
1638746703010762200,7.43576220703125,0.07523381242156028,0.01803217150326818,-0.016081183565966783
1638746703020784000,7.4457841796875,0.07178104161918163,0.01319602005109191,-0.009486863334849476
1638746703030805200,7.45580517578125,0.08659341082572937,0.016605463168397543,0.0031365809926763174
1638746703040827400,7.465827392578125,0.10304887106418609,0.005190189054235816,0.006833828075416386
1638746703050848300,7.47584814453125,0.103946112164855,0.0016056085657328366,-0.0014096110695973037
1638746703060870100,7.4858701171875,0.09645780223608016,0.0027028657505288717,0.005829473338462412
1638746703070891300,7.495891357421875,0.09587444939017295,0.002013020322844386,0.0022058029485866426
1638746703080913400,7.505913330078125,0.10037643698453902,-0.0032495763804763554,-0.003471986959502101
1638746703090934300,7.515934326171875,0.0964998878121376,0.006267572494782507,-0.009704999597556888
1638746703100956200,7.5259560546875,0.08423720308840274,0.0006217851601541042,-0.006679112437739968
1638746703110977300,7.535977294921875,0.08425064709186554,0.009098594669625162,-0.01232300007622689
1638746703120998100,7.545998046875,0.0962123030424118,0.015726561442017555,-0.004726444000005722
1638746703131020300,7.556020263671875,0.09950316128134727,0.008131393605284393,-0.012344773516617715
1638746703141041200,7.566041259765625,0.10488660788536071,0.004945347447693348,-0.003534421203844249
1638746703151063300,7.576063232421875,0.10936521460413932,0.0028172493778169153,0.009689436702243983
1638746703161084200,7.586084228515625,0.10292261433601378,0.010423267402127385,0.006683715547621249
1638746703171106300,7.596106201171875,0.0926093101143837,0.002678315831162035,0.008615341197326778
1638746703181127400,7.60612744140625,0.09994272174239158,0.0062926704034209245,0.0006004135785624385
1638746703191149300,7.6161494140625,0.08723521586060523,0.005907068619318306,0.006021306116133928
1638746703201170200,7.626170166015625,0.08889584254920482,0.009508344514295459,0.0013988704798743128
1638746703211192000,7.636192138671875,0.10297229869663714,0.00218249513823539,-0.006917743499204516
1638746703221213400,7.64621337890625,0.09054887045323848,0.00903890037164092,-0.0009364405998960137
1638746703231235300,7.6562353515625,0.09218377817869186,0.012309008083492516,-0.01075538543332368
1638746703241256200,7.666256103515625,0.10026771591305732,0.011405483372509479,0.0006147708974778652
1638746703251278000,7.676278076171875,0.10250994188189506,0.006740450703538954,-0.008177899628132581
1638746703261299200,7.68629931640625,0.08724164560139179,0.007005421782657503,-0.008819302804209292
1638746703271321300,7.6963212890625,0.0842301888257265,0.009948489497229457,0.000499437422119081
1638746703281342200,7.70634228515625,0.0911053352922201,0.003349237362667918,0.0067728186031803484
1638746703291364000,7.716364013671875,0.10292086077034472,0.007769830283895134,-0.0020708514573052525
1638746703301385200,7.72638525390625,0.10666647703945636,0.0033876331442967054,-0.0045584670219570396
1638746703311407400,7.736407470703125,0.10083411762416362,0.008902925967052578,0.004632080247439444
1638746703321428200,7.74642822265625,0.08587854055464267,0.009273914703913033,-0.0038019130336120724
1638746703331450000,7.7564501953125,0.09021861558556556,0.007229512862116098,-0.000711874596402049
1638746703341471200,7.76647119140625,0.09440729944705963,0.012245222132280468,-0.0015169804342091084
1638746703351492000,7.7764921875,0.1065343750923872,0.003742036072537303,-0.004832863516546785
1638746703361514200,7.78651416015625,0.1042898110359907,0.010028495930880307,0.001594977573864162
1638746703371535400,7.796535400390625,0.10100655158162117,0.008587722538039088,0.0027406404776498675
1638746703381557200,7.80655712890625,0.10220540597736835,-0.0034897783445194362,-0.006866963160037994
1638746703391578000,7.816578125,0.09067220457196234,0.0037783860275521874,0.001634944258071482
1638746703401600000,7.82660009765625,0.07601122653484343,0.008085581702180206,0.00437383117005229
1638746703411621400,7.836621337890625,0.08768003701865673,0.005640855431184172,0.00580623859334737
1638746703421643300,7.846643310546875,0.09756137956380843,0.005320135576836764,0.0005215031234547496
1638746703431664000,7.8566640625,0.09771452429890633,0.009748181152157484,0.00022062048073858022
1638746703441686300,7.866686279296875,0.09861585705280303,0.008823650185763835,-0.009301606428436934
1638746703451707100,7.87670703125,0.0935240868717432,0.007925714965350926,-0.0023748028399422764
1638746703461729300,7.886729248046875,0.10234452218711376,0.0076652739308774465,-0.0017007395032793283
1638746703471750100,7.896750244140625,0.09905074133872985,0.010535459072329103,-0.0037977117825299497
1638746703481772300,7.906772216796875,0.09635784899294376,0.011373736527375876,0.0050950946493074295
1638746703491793200,7.916793212890625,0.09454524661302566,-0.00010835574530065058,0.0010475362915545702
1638746703501815300,7.926815185546875,0.08571078277230262,0.00239865863956511,-0.009699519704841076
1638746703511836400,7.93683642578125,0.09889584303796291,0.008249978483654559,-0.008707257264479995
1638746703521858300,7.9468583984375,0.10787994448244571,0.01373575295098126,-0.000838277455046773
1638746703531879200,7.956879150390625,0.10579437038004398,0.008331592352502047,0.007678023814596235
1638746703541901300,7.9669013671875,0.09922025268673897,0.0072059127908200024,0.001678162345290184
1638746703551922400,7.97692236328125,0.09533376664221287,0.008189626598544419,0.0054387204552069305
1638746703561944300,7.9869443359375,0.0920335560530424,0.012470336125046014,0.0049056364918127655
1638746703571965200,7.996965087890625,0.09023322863280772,0.014239172428473829,-0.0054960036003962156
1638746703581987000,8.006987060546875,0.09127835377156734,0.0068419017840176816,0.0010154241202399133
1638746703592008400,8.017008544921875,0.09158230515420436,0.005056114345788955,0.0042885640393942595
1638746703602029300,8.027029296875,0.09696867436766624,0.0007423427999019623,0.00662471536938101
1638746703612051200,8.03705126953125,0.09876198752522468,-0.000848944979533553,0.0000595847001299262
1638746703622072300,8.047072265625,0.0957721580594778,-0.00371737655531615,0.00010989011526107787
1638746703632094200,8.05709423828125,0.0954804816365242,0.0024592662530019877,0.0002846256276592612
1638746703642115300,8.067115234375,0.09174363319575786,0.0009390344157814979,0.004159567364864051
1638746703652137200,8.07713720703125,0.08995090456008911,0.004648045001551509,-0.009735540866293012
1638746703662158300,8.087158447265624,0.10177461334466933,0.00589541471414268,-0.0014434768065810203
1638746703672180200,8.09718017578125,0.11000409702956676,0.008290054765716195,-0.0005632599059492349
1638746703682201000,8.107201171875,0.10312485890984535,0.01684069669637829,-0.0011162906788289547
1638746703692223200,8.11722314453125,0.09144611155390739,0.011532105426862836,0.0027079803170636293
1638746703702244400,8.127244384765625,0.09787176068723201,0.006399674441851675,0.00862999077718705
1638746703712266200,8.137266357421876,0.09666706107258796,-0.0056701545909047125,0.0010154606528580189
1638746703722287000,8.147287109375,0.09396306281089782,-0.0039307635776698584,0.004475757174566388
1638746703732309200,8.157309326171875,0.09351122739017009,0.004428666629828513,-0.00042184214126318693
1638746703742330400,8.167330322265625,0.0965039794653654,0.008041961756162345,-0.005323058186285198
1638746703752352300,8.177352294921874,0.09740531221926212,0.003889773980155587,0.010305924632772802
1638746703762373000,8.187373046875,0.1017541550785303,0.007786160364188254,0.006886142784543335
1638746703772395000,8.19739501953125,0.09921148485839366,0.009494937043450773,-0.004445581232011318
1638746703782416400,8.20741650390625,0.11387480098307132,0.010852927523665129,0.004069185667671263
1638746703792438300,8.217438232421875,0.10159458060264587,0.010648344862274825,0.0035063276205211874
1638746703802459100,8.227459228515626,0.09037292936444281,0.010517046632803976,0.004313369687087834
1638746703812481300,8.237481201171875,0.10114274518191814,0.014361593231745063,0.004655461123026907
1638746703822502100,8.247502197265625,0.09545710076093673,0.009131766286864877,0.0030453955778852104
1638746703832523300,8.257523193359376,0.0897638575553894,0.008527041859366,0.01107807804904878
1638746703842545200,8.267545166015625,0.09155658619105815,-0.002066394477896392,-0.005567351803556084
1638746703852566300,8.277566162109375,0.09740063604414463,0.002485935064218938,0.008428074996918439
1638746703862588200,8.287588134765626,0.10218377866744995,-0.005777450890280306,0.006294314371235669
1638746703872609800,8.29760986328125,0.10576105263233185,0.004423369400203228,0.009840243349783121
1638746703882631700,8.307631591796875,0.09094985246956348,-0.0008632657658308744,0.006093238841183483
1638746703892652800,8.31765283203125,0.09753273799121379,0.0035766529103741047,0.0013443638136610388
1638746703902674700,8.3276748046875,0.09797580558359623,0.00547781035657972,-0.0011811726085841656
1638746703912695600,8.337695556640625,0.08749532810151577,0.013279533616080879,-0.0010042451390996575
1638746703922717700,8.3477177734375,0.09123919080495833,0.012315876215696334,-0.007835187137685716
1638746703932738800,8.35773876953125,0.09706512047946453,0.017175993065349757,-0.007239559332095086
1638746703942760700,8.3677607421875,0.09585632921159266,0.009129282068833709,-0.0008193170262500644
1638746703952781600,8.377781494140624,0.10034078114926814,0.007116736670024692,0.0033786826528608795
1638746703962804000,8.387803955078125,0.09479074580669403,0.0013197408290579913,0.001669102256000042
1638746703972824800,8.397824951171875,0.09419453347921371,0.004603621337935329,0.0014191460829228162
1638746703982846700,8.4078466796875,0.09374737423360348,-0.013067059909179807,-0.0018492445958778261
1638746703992867600,8.41786767578125,0.10721943474709987,0.007406038472801447,-0.006248831261694431
1638746704002889700,8.4278896484375,0.10813187341690063,0.007396795720420777,-0.0011684592574834824
1638746704012910800,8.437910888671874,0.10096446600556373,-0.0009739230660721659,-0.005780227369256317
1638746704022932700,8.4479326171875,0.09064122491180897,0.006163929457217454,-0.0011698840295895933
1638746704032953900,8.457953857421876,0.09184066382944583,0.011246164624951779,0.00223886496797204
1638746704042975700,8.467975830078124,0.08539923260509967,0.013724208643659948,-0.006200279412232339
1638746704052996600,8.47799658203125,0.09467325690686702,0.009013473669439553,0.0007130436401814222
1638746704063017700,8.488017822265626,0.10678338141739367,0.016029161117784678,0.008275185990147291
1638746704073040000,8.498039794921874,0.10844459262788295,-0.000576046322286129,0.003365932769142091
1638746704083060700,8.508060791015625,0.10291033937633037,0.0004628682713955641,0.001077967962436378
1638746704093082600,8.51808251953125,0.09018880496919154,-0.0026352804070338604,0.007233056526072323
1638746704103103700,8.528103759765624,0.08705167598724364,-0.0007400047123432159,-0.0045356706682592625
1638746704113126000,8.5381259765625,0.08705167598724364,0.0015514306930825114,-0.006107851888425648
1638746704123146800,8.548146728515626,0.09363456150889396,0.0031835254069417715,-0.007352883513458073
1638746704133168600,8.558168701171875,0.0897504135519266,-0.001309329032897949,-0.0044415626440197226
1638746704143189800,8.568189697265625,0.10052081389129161,0.004068381950072944,0.008331044363230466
1638746704153212000,8.5782119140625,0.09767068515717983,0.015111242555268108,-0.0003544029282405972
1638746704163232800,8.588232666015625,0.0988654478996992,0.011485234077833592,0.0002829085946083069
1638746704173254700,8.598254638671875,0.0949789618551731,0.010508936391584574,0.004450330472365022
1638746704183275800,8.60827587890625,0.09766951611340045,0.007000124553032219,0.002855133702792227
1638746704193297700,8.618297607421875,0.09227321002781391,0.005604797737114131,0.0014252835627645254
1638746704203318800,8.62831884765625,0.09227554811537265,0.0013833806497976183,-0.003958564900048077
1638746704213340700,8.638340576171874,0.10275076490044593,0.013740465658716857,0.0009046206895262002
1638746704223361800,8.64836181640625,0.10035188706517219,0.0037128830432891845,0.005850662256963551
1638746704233383700,8.6583837890625,0.10260872608125209,0.005026559457741678,0.0021614888828247786
1638746704243404500,8.668404541015626,0.09797171393036842,0.007536058060638606,0.004546338192746043
1638746704253426700,8.6784267578125,0.10485329013764857,0.006905358941666781,0.005192052217759192
1638746704263447800,8.68844775390625,0.09378010745942592,0.0022165435383096335,0.005556063224561512
1638746704273469700,8.6984697265625,0.08225333579480648,0.012746340054832397,0.004169394639134407
1638746704283490600,8.708490478515625,0.09991466469168662,0.0019105097964406013,-0.008088029387593268
1638746704293511700,8.71851171875,0.09243103093802929,0.004556275064870715,0.001818520664051175
1638746704303533800,8.728533935546874,0.09062778090834617,0.005956351121142506,-0.007276274613291025
1638746704313554700,8.7385546875,0.10229308426082134,0.010632818499580025,-0.00261569892372936
1638746704323576600,8.74857666015625,0.09614859015643597,0.00943213747292757,0.006356712082959711
1638746704333597700,8.75859765625,0.10034078114926814,0.003404511213861406,0.01712269197553396
1638746704343619800,8.768619873046875,0.10108721560239792,0.0005523731857538223,0.006429704253934324
1638746704353640700,8.778640625,0.08941782059669494,0.00420431982204318,-0.002318396477587521
1638746704363662600,8.78866259765625,0.08941255989968776,0.012028254913352429,-0.000012494155392050743
1638746704373683700,8.79868359375,0.08746551748514175,0.013968429195694625,-0.006191255855560302
1638746704383705900,8.808705810546876,0.09660217914283276,0.007814144349656998,0.0003511149926111102
1638746704393726700,8.818726806640624,0.09945230787694453,0.01544515068475157,-0.0020947437895461915
1638746704403748900,8.828748779296875,0.08972937076389789,0.010356193515285848,0.0036933015599846836
1638746704413769700,8.838769775390626,0.08777589860856533,0.007997939951345324,0.0014259411498904228
1638746704423791600,8.84879150390625,0.09436813648045063,0.0012737462628632783,0.008305727258883415
1638746704433812700,8.858812744140625,0.08913432748019695,0.0033627909639850255,-0.0023752777639776466
1638746704443835000,8.8688349609375,0.10440028567314147,0.003869023453071713,-0.0017034429170191287
1638746704453855700,8.878855712890624,0.10874971305429935,0.004511157281510532,-0.008778861195966601
1638746704463877600,8.888877685546875,0.09722761756479739,0.004055668598972261,0.008268573586270212
1638746704473898800,8.898898681640626,0.09827858792245388,0.009698021867498755,0.0021596257193014024
1638746704483921000,8.9089208984375,0.09453530974090099,0.011354447305016219,-0.005069156490452587
1638746704493941800,8.918941650390625,0.08720248263478278,0.010381327956542372,0.001971994192712009
1638746704503963000,8.928962890625,0.09692015905082225,0.0056733329286798835,-0.00008132160790264606
1638746704513984800,8.93898486328125,0.09707681091725825,0.006184679984301328,-0.002419007307849824
1638746704524005600,8.949005615234375,0.09379179789721966,-0.0003459273608401417,0.005695215966925024
1638746704534027800,8.95902783203125,0.09484510634243488,0.007230937634222209,0.0006194836052134633
1638746704544049000,8.969048828125,0.09215572112798691,0.008990531185269355,0.00007332096453756094
1638746704554070800,8.97907080078125,0.09409107310473919,0.0020951821809634566,0.0019685601266101003
1638746704564091600,8.989091552734376,0.1083119061589241,0.0009741787943989038,0.003335756826587021
1638746704574113800,8.99911376953125,0.10038286672532558,0.0019309680625796317,0.0010017609210684895
1638746704584135000,9.009135009765625,0.10143383708298205,0.011905249588191509,-0.002734393399953842
1638746704594156800,9.01915673828125,0.09619768999516963,0.01339950673393905,-0.006143069332279264
1638746704604177700,9.029177734375,0.09260171132981776,0.008904789130575954,0.0007539601724594831
1638746704614199600,9.039199462890625,0.10397709182500839,0.008688442966155707,-0.004507650150172412
1638746704624221000,9.049220947265624,0.10293313573002814,0.0052374622620642184,-0.011323759905807673
1638746704634242800,9.059242919921875,0.09305413127243518,0.002424669863656163,0.001669905973598361
1638746704644263700,9.069263671875,0.10038345124721526,0.005423888212256134,0.006241743933781981
1638746704654285600,9.07928564453125,0.09618424599170684,0.003899637787044048,-0.002489734456501901
1638746704664306700,9.089306640625,0.09050561583340168,0.0036584859749302268,0.0015993614880368114
1638746704674328800,9.099328857421876,0.10114332970380782,0.005316445782408118,0.011171784214489161
1638746704684349700,9.109349609375,0.10265782591998576,0.005458996058255434,0.008572086577489972
1638746704694371600,9.11937158203125,0.10684475621581077,0.004609393491595983,0.006920848771743476
1638746704704392700,9.129392822265626,0.09607435587644576,0.0035833018468692896,0.0010712459607049821
1638746704714414800,9.139414794921874,0.09592530279457569,0.008942856118641793,-0.0009066299835219978
1638746704724435700,9.149435791015625,0.09082885643839836,0.017050211261212825,0.0050315278938040135
1638746704734456800,9.159456787109375,0.10189677841961384,0.0059541591640561815,0.006657046736404299
1638746704744478700,9.169478759765624,0.0939636473327875,-0.0005447013359516858,0.005074965176731348
1638746704754499600,9.17949951171875,0.09769640412032604,0.005856580541096628,0.002407426467910409
1638746704764521700,9.189521728515626,0.08780804731249808,0.005215323495492339,0.008229520217515527
1638746704774542800,9.19954296875,0.08510697166025638,0.0037141616849228737,0.005326236524060368
1638746704784564700,9.209564697265625,0.09948036492764949,-0.002841433971002698,0.009695610714703798
1638746704794585600,9.219585693359376,0.10637246252894401,0.0020841858629137276,-0.0043999519919976585
1638746704804607700,9.229607666015625,0.09470715917646884,0.003430120579153299,0.0037613983601331707
1638746704814628900,9.23962890625,0.09889759660363197,0.007416011877544224,0.004144808187149465
1638746704824650800,9.249650634765626,0.09111176503300666,0.007188705927692354,-0.008443089902959763
1638746704834671600,9.259671630859375,0.08826280534267425,0.010435469296574592,-0.003635360827669501
1638746704844693800,9.26969384765625,0.09993103130459785,0.008072758753225207,-0.0009855039060115813
1638746704854714600,9.279714599609376,0.09497779281139374,0.0024168884159997102,-0.003208075326308608
1638746704864736800,9.28973681640625,0.09587035773694515,-0.0009754209034144878,-0.0071560822997242205
1638746704874757600,9.299757568359375,0.10260989512503146,0.0045838571915403,-0.001514569281414151
1638746704884779500,9.309779541015626,0.08839490728974342,0.006611527094244956,-0.0031163419222459197
1638746704894800400,9.31980029296875,0.09976444256603717,0.002673310862481594,-0.002374327915906906
1638746704904822500,9.329822509765625,0.10037409889698028,0.0008859159890562295,-0.001691752479225397
1638746704914843600,9.33984375,0.09903437472581862,0.0013822481386363506,0.007165434649959206
1638746704924865500,9.349865478515625,0.11264964310228824,0.0111477457517758,0.0017844722639769315
1638746704934886400,9.359886474609375,0.09738310038745403,0.008500263450294733,0.008357019054703414
1638746704944908300,9.369908203125,0.0906482391744852,0.014403459612093866,0.0015436857780441642
1638746704954929700,9.3799296875,0.1041115318596363,0.004312346773780882,-0.005315459401719272
1638746704964950500,9.389950439453125,0.09826806652843952,0.00644581513851881,0.003374627532251179
1638746704974972400,9.399972412109374,0.0943780733525753,0.008263860878534614,0.00567256574369967
1638746704984993500,9.40999365234375,0.10754209083020687,0.0036455899607390164,0.00005114566534757614
1638746704995015400,9.420015380859375,0.10723872396945952,-0.0015532207913696765,0.006588182751275599
1638746705005036500,9.43003662109375,0.10094868391454219,0.0015987769661471246,0.0009294263372197747
1638746705015058400,9.440058349609375,0.10229542234838009,-0.0012630422057583928,-0.0005992080021649599
1638746705025079600,9.45007958984375,0.098712887686491,0.007844028031267226,-0.00004175678249448538
1638746705035101400,9.460101318359374,0.09437047456800937,-0.0019368132814764976,0.002273680553026497
1638746705045122300,9.470122314453125,0.10079553917944431,0.004209799714758992,0.0014458879593759774
1638746705055144400,9.48014453125,0.09720423668920994,0.015341251918859778,-0.007675174270384013
1638746705065165600,9.49016552734375,0.09091770376563071,0.01750580954160541,0.0007691212089732289
1638746705075187500,9.5001875,0.08971651128232479,0.018123247320204972,0.002031907686404884
1638746705085208300,9.510208251953125,0.09330430664122104,0.006163892924599349,0.0030020678928121924
1638746705095230500,9.52023046875,0.09449497773051262,0.00636412820443511,0.006950440192408859
1638746705105251600,9.53025146484375,0.09539280335307121,0.0012859116246923803,0.0030765213685110208
1638746705115273500,9.5402734375,0.09329436976909637,0.0021886326180770993,0.004341390205174684
1638746705125294300,9.55029443359375,0.09359539854228496,-0.001342244921810925,-0.00578450168557465
1638746705135316500,9.56031640625,0.09748539171814918,0.004861541621759533,0.0046925417304039
1638746705145337600,9.570337646484376,0.08595978909730911,0.012655921825021505,0.0008787190632894634
1638746705155359500,9.580359375,0.09315583808124064,0.012700162825547158,0.0008361220305785536
1638746705165380400,9.59038037109375,0.10932897424697875,0.01467007465902716,0.0012689970225095747
1638746705175401500,9.6004013671875,0.10229308426082134,0.00849335878547281,0.003958711030520499
1638746705185423400,9.61042333984375,0.106930096411705,0.005560008747316897,-0.002127257819660008
1638746705195444500,9.620444580078125,0.09690496148169041,0.011152750720456243,-0.005396634879149496
1638746705205466600,9.630466552734376,0.09720891286432742,0.009597447569854556,0.004661269809305668
1638746705215487500,9.640487548828125,0.10453297214210033,0.004807034955546259,0.00796429341007024
1638746705225509400,9.65050927734375,0.09390987131893634,0.006729929309524595,0.007209529520012438
1638746705235530500,9.660530517578126,0.10483809256851673,-0.008841331972926855,0.008217902844958007
1638746705245552600,9.670552734375,0.10560030911266803,-0.0019475904038175939,0.003291625423915684
1638746705255573500,9.680573486328125,0.10501228009164333,-0.002124810134246945,-0.0010493629224598408
1638746705265595400,9.690595458984374,0.08675006269216537,0.0054364919655025,-0.013370097976364195
1638746705275616500,9.700616455078125,0.06684066260755062,0.017459924573265014,-0.025149529227800664
1638746705285638700,9.710638671875,0.07102876194715499,0.016815525722503662,-0.01943338007070124
1638746705295659500,9.720659423828126,0.09451134434342384,0.011912702242285012,-0.022067747162282464
1638746705305681400,9.730681396484375,0.11006488730609416,0.009442110877670348,-0.007070230647176504
1638746705315702500,9.74070263671875,0.11693068142235279,0.0017464783411473034,0.006453085129521786
1638746705325724700,9.750724609375,0.10599310782253742,-0.005549743081629276,0.008017996358685196
1638746705335745500,9.76074560546875,0.09925298591256142,-0.003506108424812555,0.02506517541259527
1638746705345767400,9.770767333984375,0.10509411315619945,-0.01043119498025626,0.030078217801637944
1638746705355788500,9.78078857421875,0.09868424611389637,-0.009223572756163775,0.01808145400509238
1638746705365810400,9.790810546875,0.0903214914381504,0.002532185358740389,-0.002752075187116861
1638746705375831600,9.80083154296875,0.06788871035575866,0.013004150740802287,-0.027034502724185585
1638746705385852700,9.810852783203124,0.06862871506810188,0.011334975419566035,-0.03153554047048092
1638746705395874600,9.82087451171875,0.0865741216033697,0.018939860932715238,-0.037333595757372676
1638746705405895400,9.8308955078125,0.10989128430485724,0.013909063691273331,-0.01001508846003562
1638746705415917300,9.840917236328124,0.13680793280303477,0.01788403173685074,-0.0043952392842620605
1638746705425938700,9.850938720703125,0.11493687725663185,0.004500270561315119,0.012311382703669368
1638746705435960600,9.860960693359376,0.10265548783242702,-0.004348294869996607,0.023879399694129822
1638746705445981400,9.8709814453125,0.08200432946979999,-0.005872837556153535,0.02052223475333303
1638746705456003300,9.88100341796875,0.0730459469884634,-0.006424553154781461,0.022537520098499953
1638746705466024400,9.8910244140625,0.07815116117298603,0.0013501724999397992,0.018211765853874386
1638746705476046600,9.901046630859375,0.09762626149356364,0.0023737433940172192,0.00340399975720793
1638746705486067500,9.9110673828125,0.10751228021383284,0.013683365176618098,0.0007353650698438286
1638746705496089300,9.92108935546875,0.1166466037839651,0.01744078148137778,-0.010830021572113036
1638746705506110500,9.9311103515625,0.11201134519875049,0.017621106484346092,-0.01975304047912359
1638746705516132600,9.941132568359375,0.08536591485738754,0.012700016695074737,-0.018190248141810295
1638746705526153500,9.951153564453126,0.08699848449528216,0.019318521519377827,-0.016906674604676663
1638746705536175600,9.961175537109375,0.09641279405057429,0.005738032195344567,-0.007166530628502368
1638746705546196500,9.971196533203125,0.09400456386506557,0.0032079291958361862,0.006921177565306425
1638746705556218400,9.98121826171875,0.09909867213368415,0.00954400034956634,0.014728636445850133
1638746705566239500,9.991239501953125,0.09940671516954898,0.004298793172463775,0.016063574844039974
1638746705576261600,10.00126171875,0.09253975200951099,-0.0006258768133819103,0.01761745322253555
1638746705586282500,10.011282470703126,0.09555062426328659,0.00048131724353879686,0.005545541830547154
1638746705596304400,10.021304443359375,0.10274375063776969,0.004232121144421399,-0.0059835679216310375
1638746705606325500,10.031325439453125,0.09603168577849865,0.007809760435484349,-0.015088701929897069
1638746705616347600,10.04134765625,0.09782616797983645,0.01021422776132822,-0.026776363244652747
1638746705626368500,10.051368408203125,0.10006313325166702,0.004446859873645007,-0.015197057675197719
1638746705636389400,10.061389404296875,0.1079892500758171,0.0032103403486311434,0.0007798617986962199
1638746705646411500,10.07141162109375,0.10513619873225688,0.008674122179858386,0.005714285993576049
1638746705656432400,10.081432373046875,0.11755085914731025,0.001926730278879404,0.02006944948453456
1638746705666454500,10.09145458984375,0.11591244429051875,-0.0038483094586059447,0.02941712354440242
1638746705676475600,10.1014755859375,0.09796586871147155,-0.008951258620806039,0.032193346792086956
1638746705686497500,10.11149755859375,0.10533025999963283,-0.011447715079039335,0.022947671801969407
1638746705696518400,10.121518310546875,0.09876666370034218,-0.005012092540971935,-0.008771116280928254
1638746705706540500,10.13154052734375,0.0772282011091709,-0.003652750353887677,-0.01223327596616
1638746705716561700,10.141561767578125,0.06392272933423519,0.028331629862636327,-0.03928030937835574
1638746705726583600,10.15158349609375,0.05599778155386448,0.03913136589433998,-0.04367616971712559
1638746705736604400,10.1616044921875,0.07063420967161654,0.03926390623282641,-0.046007681404612956
1638746705746626300,10.171626220703125,0.09604162265062331,0.028413353329338132,-0.019998941531591118
1638746705756647700,10.181647705078126,0.12114625329077243,0.01340063924510032,0.0005661459827795625
1638746705766669600,10.191669677734374,0.12875614377260208,0.013389021872542798,0.012773374192230402
1638746705776690400,10.2016904296875,0.09657529113590717,0.00009874766673892736,0.01057918861620128
1638746705786712300,10.21171240234375,0.07442424960434436,-0.010985467862151562,0.028783940207399425
1638746705796733400,10.2217333984375,0.07535539297461509,-0.015425971060246228,0.02807655912302434
1638746705806755600,10.231755615234375,0.10008476056158543,-0.01486424552425742,0.03009283084888011
1638746705816776400,10.2417763671875,0.10790741701126098,-0.013745032235980033,0.015493446805886924
1638746705826798300,10.25179833984375,0.11675824746489524,-0.004073313853517175,0.00423847781997174
1638746705836819500,10.2618193359375,0.11123685369491576,0.00870689193829894,-0.012327164794690907
1638746705846840300,10.27184033203125,0.09298749577701092,0.024516345890797674,-0.01832381139360368
1638746705856862500,10.281862548828125,0.09283610460758208,0.016778043256327507,-0.01350819127280265
1638746705866883600,10.291883544921875,0.09430909976959229,0.016386815449036658,-0.01186502717565745
1638746705876905000,10.301905029296876,0.10402034644484519,0.01134385284576565,0.0019600845592096447
1638746705886925800,10.31192578125,0.10639584340453147,0.0014244798451662063,0.010906119015626608
1638746705896948000,10.321947998046875,0.11850596791505813,-0.008468224344216287,0.01052490114569664
1638746705906968800,10.33196875,0.10024784216880797,-0.007318981243856251,0.010984006557427347
1638746705916991000,10.341990966796875,0.07377426126301288,-0.006748780140466988,0.006630268327333033
1638746705927011800,10.35201171875,0.0489513701736927,0.0035993761988356706,-0.0017911942657083272
1638746705937034000,10.362033935546876,0.07634381949007511,0.007468070858344435,-0.011158595939353108
1638746705947054800,10.372054931640625,0.08414134149849414,0.013248663553781806,-0.030508462445065377
1638746705957076700,10.38207666015625,0.10598550903797149,0.01455470465105027,-0.026761969393119214
1638746705967098000,10.39209814453125,0.11915478721261023,0.0057568830262869596,-0.009561974397674202
1638746705977120000,10.4021201171875,0.12439385690987109,0.01116002071145922,0.0063711789997294545
1638746705987140900,10.412140869140625,0.1155617311567068,0.011598850520141422,0.0026690000135451554
1638746705997162800,10.422162841796874,0.0818862560480833,0.006623107934184372,0.004609210828505456
1638746706007184000,10.432183837890625,0.0534434208959341,0.0053822044949978585,-0.010055274339951575
1638746706017206000,10.4422060546875,0.04716448675692081,0.004731923892721534,-0.005485482206381857
1638746706027227000,10.452226806640626,0.0767974084764719,0.006597206307947635,0.0031201778471469876
1638746706037248800,10.462248779296875,0.1326198334634304,-0.003263568373210728,0.014720343541540205
1638746706047270000,10.472269775390625,0.15551555588245392,-0.011786993503384292,0.007286576811596751
1638746706057290800,10.482290771484376,0.13174188158512115,0.00023914251811802385,0.0070176236771047115
1638746706067313000,10.49231298828125,0.09792845931053161,-0.0030646848002448676,0.004046535444445908
1638746706077334000,10.502333984375,0.07308861708641051,0.004059431458637118,-0.0024773498989641663
1638746706087356000,10.51235595703125,0.06890285583436488,0.01043970708027482,-0.008953852436691521
1638746706097376800,10.522376708984375,0.08581132053732872,0.0171931633958593,-0.012682882897183298
1638746706107399000,10.53239892578125,0.098233579736948,0.017029497266747056,-0.007408413092978299
1638746706117420000,10.542419921875,0.10883388420641421,0.012651355247758329,-0.008235438501648604
1638746706127442000,10.55244189453125,0.1088040735900402,0.016144859919324517,0.0018495368568226694
1638746706137462800,10.562462890625,0.10235153644978999,0.0006157938107848167,0.019159531565383074
1638746706147485000,10.57248486328125,0.11611994956135749,-0.00530106555018574,0.018870156697370112
1638746706157506000,10.582506103515625,0.1065425583988428,-0.004713146127015352,0.008666413797438145
1638746706167528000,10.59252783203125,0.07677168951332569,-0.003987754461914301,-0.006530643877759575
1638746706177548800,10.602548828125,0.05897182892858982,0.0016254823099821805,-0.019338504861481486
1638746706187570700,10.61257080078125,0.06391571507155895,0.00310972951836884,-0.012307181452587246
1638746706197592000,10.622592041015626,0.094290979591012,0.008640110312402248,0.0005203706122934818
1638746706207614000,10.632614013671875,0.1438344704389572,0.010128339576162397,0.013334113347530364
1638746706217634800,10.642634765625,0.14532558577954768,0.0014618161808699368,0.006185849028080701
1638746706227657000,10.652656982421876,0.12151684016883373,0.001836531244777143,-0.006319631475582718
1638746706237677800,10.662677734375,0.0758604198873043,0.006268595408089459,-0.0018984540324658153
1638746706247700000,10.672699951171875,0.043674306553602216,0.018138591019809244,-0.008238032317534089
1638746706257720800,10.682720947265626,0.05894669448733329,0.007225384676270186,-0.011570537741109728
1638746706267743000,10.692742919921875,0.09305705388188362,0.008595065594278275,-0.010876454529725015
1638746706277763800,10.702763916015625,0.10965513746142387,0.018062785837240514,-0.00903173997849226
1638746706287784700,10.71278466796875,0.11473287911713123,0.00396904976144433,0.008161386884748935
1638746706297807000,10.72280712890625,0.12939035002291202,-0.007160173952952027,0.01146327797435224
1638746706307828000,10.732827880859375,0.11532149266004561,-0.006196260824240744,0.019935265178233384
1638746706317849900,10.742849853515626,0.0955675753980875,-0.007937040076963603,0.020734050873108208
1638746706327870700,10.75287060546875,0.09633213002979756,-0.0071839566873386496,0.026775924853235482
1638746706337893000,10.76289306640625,0.09605039047896861,0.0004189925970509648,0.019719759264029562
1638746706347914000,10.7729140625,0.09621873278319835,0.0047188817480579015,0.0012140519648790359
1638746706357935900,10.782935791015625,0.088304306396842,0.00956979237794876,-0.017864852112345397
1638746706367957000,10.79295703125,0.07513795083165169,0.02539648972619325,-0.033883528368733824
1638746706377979000,10.802978759765624,0.06733633717000484,0.034145540305785836,-0.0451593940122053
1638746706388000000,10.813,0.06417465826869011,0.02887388351317495,-0.042056824886985124
1638746706398022000,10.82302197265625,0.10126374121308326,0.00945402051117271,-0.02288728338424116
1638746706408043000,10.83304296875,0.132667179736495,0.0015089432582259176,0.007003339423425495
1638746706418065000,10.84306494140625,0.15121405929625034,-0.0019038608599454164,0.02135137905385345
1638746706428085800,10.853085693359375,0.14015432062149047,-0.022364318956062196,0.034407223449274896
1638746706438108000,10.86310791015625,0.10530746364593505,-0.012306487332843244,0.04503945742696523
1638746706448129000,10.87312890625,0.07346388013958931,-0.004969385910406708,0.02172894366197288
1638746706458151000,10.88315087890625,0.05165419939160347,0.0073569386340677735,-0.007876249800436198
1638746706468171800,10.893171875,0.05226970094144344,0.02390928337574005,-0.045229353975877164
1638746706478193000,10.90319287109375,0.0621358459174633,0.024665727766230702,-0.07232603521607815
1638746706488215000,10.913215087890626,0.10835048460364341,0.02311407787743956,-0.06487973779812455
1638746706498236000,10.92323583984375,0.15771920340657233,0.020714250194095073,-0.0631025720577687
1638746706508257800,10.9332578125,0.17520283764898775,0.00230900759473443,-0.09988229679204523
1638746706518279000,10.94327880859375,0.1425713186353445,-0.004713109594397247,-0.150330189133808
1638746706528301000,10.953301025390624,0.12073650344610214,-0.025181714464351534,-0.19522256624028086
1638746706538322000,10.963322021484375,0.1346457863330841,-0.016369170194491744,-0.16979235690757633
1638746706548343800,10.97334375,0.13854454733729363,0.016899112352728844,-0.13668613305427132
1638746706558365000,10.983364990234374,0.10234744479656219,0.018657573392614722,-0.22219028733856974
1638746706568386800,10.99338671875,0.05489361970424652,0.010246120736934244,-0.2801657987061888
1638746706578408000,11.003407958984376,-0.010568155765533447,0.041182818531431256,-0.16402319892160594
1638746706588429800,11.013429931640625,-0.007349778240919112,0.052178332863561806,-0.1109420719994232
1638746706598451000,11.023450927734375,0.05051438170671463,0.07478051569610834,-0.06848769916221499
1638746706608472800,11.033472900390626,0.11394435908794402,0.08042546278052032,-0.06094075438138097
1638746706618493700,11.04349365234375,0.12782149327099324,0.062482394332811234,-0.03524382040388882
1638746706628515800,11.053515869140625,0.13149696691334248,0.001872150547429919,0.018172822082974015
1638746706638537000,11.063536865234376,0.15109247874319554,-0.02629701876249164,0.10112594017758965
1638746706648558800,11.073558837890625,0.12868833923339842,-0.02674202258363366,0.14695249286163597
1638746706658579700,11.083579833984375,0.08759118969142436,0.01591784623041749,0.19103355358522384
1638746706668600800,11.093600830078126,0.04635843107104301,0.07490728388093411,0.22315420046728104
1638746706678623000,11.103623046875,0.04209668197333812,0.13696315989736466,0.19515841496288774
1638746706688643800,11.113643798828125,0.06033551849722862,0.1218744579674676,-0.08861063239965587
1638746706698666000,11.123666015625,0.03814765208661556,0.08436524991486222,0.06428655767794698
1638746706708686800,11.133686767578125,0.041863457739353176,-0.022026538369059562,0.13574110728912056
1638746706718709000,11.143708984375,0.08870879554450511,-0.005325798132643104,0.04535970235727727
1638746706728729900,11.153729736328126,0.08613806827366352,0.0005126256972551345,0.07831661740038544
1638746706738752000,11.163751953125,0.15293839887082575,-0.21185327344778923,0.11134086205866187
1638746706748772900,11.17377294921875,0.3264198195546865,-0.11943838992696255,0.2170119348526001
1638746706758795000,11.183794921875,0.3512462177753448,0.18987722315695135,0.15601798897925764
1638746706768815900,11.19381591796875,0.23046645970940588,0.30043201287183907,0.08998016718719154
1638746706778838000,11.203838134765626,-0.018052374041080475,0.16881098118741064,0.2842548581181094
1638746706788859000,11.21385888671875,-0.11219546959400176,-0.2507983595224097,0.18821396611984817
1638746706798880800,11.223880859375,-0.08900281005501746,-0.31227658178135753,0.4743429475467652
1638746706808902000,11.23390185546875,-0.1878372782945633,0.041287374884448946,0.8973593932863324
1638746706818924000,11.243924072265624,-0.5840232925146818,-0.1458894302073866,0.9529159338787198
1638746706828945000,11.25394482421875,-1.1948171030551193,-0.42123146201893685,0.6434940108761191
1638746706838966800,11.263966796875,-1.228943829062581,-0.2503933954507112,-0.28355463742688297
1638746706848988000,11.27398779296875,0.9220768512398004,-0.3648126785740256,-1.24601975928694
1638746706859010000,11.284010009765625,2.2585580949574706,-1.0195897154867648,-1.5394893492676316
1638746706869031000,11.294031005859376,3.3333068030864,-0.4228554099589586,-1.194031286439672
1638746706879052800,11.304052734375,3.4858407128095625,0.6143607092417777,0.9429007358208298
1638746706889074200,11.31407421875,1.1699784298747777,1.448507494224608,3.318979587048292
1638746706899095000,11.324094970703126,-1.0833780047863721,1.8497592674016952,2.8519147407457233
1638746706909117000,11.334116943359374,-1.6873434306114912,1.6027388555154203,-0.08281813007071613
1638746706919138000,11.344137939453125,-1.4713672685474157,0.7093631981030106,-1.5144598296903073
1638746706929160000,11.354159912109376,-0.9043266750156879,-0.41961591658107933,-1.9369369078561662
1638746706939181000,11.36418115234375,-0.5673749400526285,-1.3582402171917258,-2.1011744071155785
1638746706949203000,11.374202880859375,-0.3902770824372768,-1.3803699236743152,-1.0858340196363627
1638746706959224000,11.38422412109375,-0.26882278611063953,-0.9714031191404908,-0.016552052480727435
1638746706969246000,11.394245849609375,-0.12205986100435257,-0.7043393785916269,0.40954840381406243
1638746706979266800,11.404266845703125,0.08938508737087249,-0.3600295724833384,0.3647273018455133
1638746706989289000,11.4142890625,0.30389585305750366,0.14437540891524403,-0.03214768101945519
1638746706999310000,11.42431005859375,0.1913479167640209,0.19160189152508972,-0.057134347835741936
1638746707009332000,11.43433203125,-0.008867197066545486,0.09755666685607284,-0.07564337960314005
1638746707019352800,11.444352783203126,-0.1091220534980297,0.0448441175179556,0.08522172061372547
1638746707029375000,11.454375,-0.16190379561483859,0.017183336121588944,0.0947339375855401
1638746707039396000,11.46439599609375,-0.1539472836524248,-0.0018571721740067004,0.13128237431459128
1638746707049418000,11.47441796875,-0.023774843341112135,0.009566723638027906,0.1602822222949937
1638746707059438800,11.48443896484375,0.116790396168828,0.010472001914680003,0.2470264032356441
1638746707069461000,11.4944609375,0.23748832117021082,0.017592793705314396,0.3200003079012036
1638746707079482000,11.504482177734374,0.5067828164458275,0.04221840865686535,-0.19802202423308043
1638746707089503000,11.5145029296875,0.5747177040308714,0.1744855927577242,-0.3921575624216348
1638746707099524900,11.52452490234375,0.33034429952204225,0.3426089570071548,-0.4015323071515187
1638746707109546000,11.5345458984375,-0.044373979255557056,0.32835674243401736,-0.13750636339597402
1638746707119568000,11.54456787109375,-0.28247897101938724,0.21916195249333975,0.08050919554121792
1638746707129589000,11.554589111328125,-0.2109551190316677,0.07211805502120405,0.039633287534490226
1638746707139611000,11.56461083984375,0.06876198605895043,0.02843056019246578,0.043602373828552664
1638746707149632000,11.574632080078125,0.28837621236443517,-0.012799896872974932,-0.07519450332447886
1638746707159654000,11.58465380859375,0.39405835454165933,-0.002669876796379685,-0.2039626297958195
1638746707169674800,11.5946748046875,0.307397723698616,-0.016034641010500488,-0.1536237873191014
1638746707179697200,11.604697265625,0.12038637483417987,-0.05523081576935947,-0.10382208392638713
1638746707189718000,11.614718017578125,0.034409050080180165,-0.09199892313107848,-0.19803031713739036
1638746707199740000,11.624739990234374,0.04358662827014923,-0.09360858681742101,-0.1874917893251404
1638746707209761000,11.634760986328125,0.09605272856652736,-0.04198909341301769,-0.0906185381559655
1638746707219783200,11.644783203125,0.16026596527993678,0.01000785500165075,-0.0016675313534215092
1638746707229804000,11.654803955078124,0.13375555949509144,0.13410006208382547,0.18997987981382755
1638746707239826000,11.664825927734375,0.12905775706768036,0.20747348746098576,0.2795596129739657
1638746707249847000,11.674846923828126,0.16199731911718845,0.2183157474601641,0.2928173731496557
1638746707259869200,11.684869140625,0.08000468008518219,0.1297277287511155,0.23681666898634282
1638746707269890000,11.69489013671875,0.11525485716462135,0.007350581958517431,0.14128854881580918
1638746707279912000,11.704911865234376,0.22607085509896277,0.04702825662400573,0.17508571407534182
1638746707289933000,11.71493310546875,0.1483364580333233,-0.025520225703716277,0.3981679087523371
1638746707299954000,11.724953857421875,-0.03336684755086899,-0.02348031737394631,0.8206803504925221
1638746707309976000,11.73497607421875,-0.14004910668134687,-0.04823189679272472,0.3976976243594661
1638746707319997200,11.7449970703125,-0.23135317941606043,0.12054963910449296,0.3665258026348427
1638746707330019000,11.75501904296875,-0.10396072521209716,0.5313568838732317,-0.0019072218608111142
1638746707340040000,11.7650400390625,0.29678455974757667,0.6058693232176825,-0.14064341931268573
1638746707350061800,11.775061767578125,0.6172714821219444,0.510812583418563,-0.10930332834906875
1638746707360083200,11.785083251953125,0.5552665691077708,0.33350502857528624,-0.1424004921130836
1638746707370105000,11.79510498046875,0.33569618194401263,0.23804613771606234,-0.08728168535083532
1638746707380126000,11.8051259765625,0.18440788836777208,0.05705189371667802,-0.2521079077510163
1638746707390147800,11.81514794921875,0.0891366655677557,-0.05616890033707023,-0.192371378060244
1638746707400169000,11.8251689453125,0.020714871248602867,0.1050276237912476,-0.1559854384165257
1638746707410191000,11.835191162109375,-0.1896533878058195,0.3416083651298657,-0.41297059681508685
1638746707420212000,11.8452119140625,-0.30905192064642906,0.8230296900976449,-0.6197529236741364
1638746707430233900,11.85523388671875,-0.40019758794903754,1.1214515687234698,-0.6946885568667203
1638746707440255000,11.8652548828125,-0.3999509197115898,1.087786030486971,-0.6034918169640004
1638746707450277000,11.875277099609375,-0.31129706922471523,0.702413525095582,-0.27787752337222915
1638746707460298000,11.885298095703124,-0.18432137912809848,0.1360546667503193,0.1510811353652738
1638746707470319900,11.89531982421875,0.10319850866794586,-0.6690976770795881,0.18299383858507498
1638746707480341000,11.905341064453125,0.0619832857042551,-1.2891856779269872,0.26096184347718954
1638746707490363000,11.91536279296875,0.063926820987463,-1.503109875897318,0.5992529372852295
1638746707500384000,11.925384033203125,0.4777718260169029,-1.2661518622115253,0.4660641813600436
1638746707510405000,11.935405029296875,0.6265671337336302,-0.8743614526018499,0.13303500840188934
1638746707520427000,11.945427001953124,0.8329360940188169,-0.4922425056463107,-0.02442044776827097
1638746707530448000,11.95544775390625,1.0403799900591373,-0.5607808390172198,-0.31112982289902863
1638746707540469800,11.9654697265625,0.8709183264106511,-0.8119768195550888,-0.1363675503580831
1638746707550491100,11.9754912109375,0.40522038454711434,-0.6859395793523639,0.011120419353432952
1638746707560513000,11.985512939453125,-0.03439385251104832,-0.4351150259427726,-0.10709323281785472
1638746707570534000,11.995533935546876,-0.3854185364902019,-0.2670981908077374,0.0424792880827561
1638746707580556000,12.00555615234375,-0.5368669890642166,-0.15776574596203863,0.17255794916339218
1638746707590577000,12.015576904296875,-0.4752630580663681,-0.039365357313305135,0.1639784099318087
1638746707600599000,12.02559912109375,-0.22199907561540602,0.11446052844915539,0.03300918865303974
1638746707610620000,12.035619873046874,0.15854045666158198,0.32641802945639936,0.02533865402515512
1638746707620642000,12.04564208984375,0.5279968693882227,0.43014498244524,0.25481179641485213
1638746707630663000,12.055662841796876,0.7101584401339293,0.3700220107201487,0.4026898066235706
1638746707640685000,12.06568505859375,0.5798807858824729,0.1610789621632546,0.37247254567742344
1638746707650706200,12.0757060546875,0.08414426410794258,-0.26572945973780004,0.08119140565171837
1638746707660728000,12.08572802734375,-0.5669026463657617,-0.8121081177845597,-0.6204699859023094
1638746707670749000,12.0957490234375,-0.9063041125684976,-0.856924068653956,-1.528991774520278
1638746707680770800,12.105770751953125,-0.5709381854921579,-0.014546996268630027,-1.670982809049636
