time,seconds_elapsed,z,y,x
1638754201743694800,0.02369482421875,-0.09066635935306548,0.14028313463293016,0.014499503865092992
1638754201753657900,0.033657958984375,0.06997779158949852,-0.02506853641346097,0.14060966317355633
1638754201763620900,0.043620849609375,0.23529928669333455,-0.021633666593953965,0.09225640502348542
1638754201773584000,0.053583984375,0.17534546099007128,-0.02416764205098152,-0.053936465109884736
1638754201783548000,0.0635478515625,-0.10644611228704452,-0.1164157176375389,-0.16872604285031556
1638754201793511000,0.073510986328125,-0.32383915541172026,-0.07356602533981203,-0.09760507257506251
1638754201803474000,0.083473876953125,-0.250123346337676,0.1109211388092488,0.11026172505244612
1638754201813437000,0.09343701171875,-0.05365209521055221,0.1542909094583243,0.15934826591312884
1638754201823399700,0.103399658203125,0.07543313438594342,-0.04509352570176124,0.02764313614182174
1638754201833363000,0.113363037109375,0.1215180092126131,-0.13348273390308021,-0.10259433222971856
1638754201843326000,0.123325927734375,0.10681786820888518,-0.016186214843019842,-0.10737944761440157
1638754201853289000,0.1332890625,0.010933481946587562,0.06196881878748536,0.017001988205313682
1638754201863252000,0.143251953125,-0.15932196242809293,-0.018845643310621378,0.0802815973304212
1638754201873215000,0.153215087890625,-0.18709435097277163,-0.04956475283168256,-0.018214944191649554
1638754201883179000,0.163178955078125,-0.04737900629043579,0.005749503437429666,-0.05460705784782767
1638754201893142000,0.17314208984375,0.03489186516106128,0.0015037556264549494,-0.07435549521706998
1638754201903104800,0.183104736328125,-0.01752279720902443,-0.07672609680593014,-0.014889160769805312
1638754201913067800,0.19306787109375,-0.06756254714131354,-0.048749417860805985,0.03609510347098112
1638754201923030800,0.20303076171875,-0.053124856466054915,0.04781155248880386,0.03793693194538355
1638754201932993800,0.212993896484375,-0.03061608753800392,0.0766638452246785,0.006723536101356149
1638754201942956800,0.222956787109375,-0.060543023768067354,-0.03583747544810176,-0.009945566887781023
1638754201952920000,0.232920166015625,-0.1189864449083805,-0.09340776701569557,0.005494067371636629
1638754201962883000,0.242883056640625,-0.10799918694794178,0.00655322103574872,0.042880379696935415
1638754201972847000,0.25284716796875,-0.07477496273815631,0.10256912472322582,0.03704290571510792
1638754201982809900,0.262809814453125,-0.04341887048780918,0.060857058153301474,0.020877514464408158
1638754201992772900,0.27277294921875,0.016437340059876442,0.012795038034766911,-0.02943981030024588
1638754202002735900,0.28273583984375,0.06493745933473109,0.004431406576186419,-0.066570467364043
1638754202012699000,0.292698974609375,0.03690671211481094,0.013835852324590087,-0.05902881981283426
1638754202022662000,0.302661865234375,-0.04949205292165279,-0.005613382902368903,-0.016981895265355706
1638754202032624000,0.3126240234375,-0.09450199199318886,-0.01913308194987476,0.02311659862808883
1638754202042587400,0.32258740234375,-0.06943535527586936,-0.013657427017763256,0.021526041501015423
1638754202052550400,0.33255029296875,-0.04413783241212368,-0.056324967681616545,0.02803703083023429
1638754202062513400,0.342513427734375,-0.06110591834783554,-0.08698701325319706,0.0389938205871731
1638754202072477400,0.3524775390625,0.3833616039603948,-0.13726064500659704,0.04313260089233517
1638754202082440400,0.3624404296875,0.31002339602708817,0.015518033257871865,-0.3682441873926669
1638754202092403200,0.3724033203125,-0.2617541628986597,0.15147826319038868,0.1022685343414545
1638754202102366200,0.3823662109375,-0.5698813699156046,0.03808613115772605,0.40797487088702616
1638754202112329200,0.3923291015625,-0.7558242127656937,0.05272672399394214,-0.09311031843908131
1638754202122292200,0.402292236328125,-0.4491577259510755,0.05979644318446516,0.1743139990504831
1638754202132255200,0.412255126953125,0.271399358600378,0.07686185201480984,0.04795622165650129
1638754202142218200,0.42221826171875,0.6967991923451423,-0.038434944595396515,-0.40113676849529145
1638754202152181200,0.43218115234375,0.6326596053898335,-0.2466463909421116,-0.10291275052912532
1638754202162145300,0.442145263671875,0.21458324640095233,-0.2697277721263468,0.12631693392693996
1638754202172108300,0.4521083984375,-0.3127928607404232,-0.11013656430281699,-0.007032163659110665
1638754202182071300,0.4620712890625,-0.6688368341863155,0.09258242210745811,0.07561638199836015
1638754202192034300,0.472034423828125,-0.6050882923752069,0.18633556849472224,0.1373104024324566
1638754202201997300,0.481997314453125,-0.1653244177132845,0.15551709025241434,0.01283127839192748
1638754202211960300,0.491960205078125,0.2206318789154291,0.1282324121594429,-0.01959755765646696
1638754202221923300,0.50192333984375,0.3836918588280678,-0.12152677704095839,-0.229832618785277
1638754202231886000,0.511885986328125,0.39544834759533404,-0.21072116414532063,-0.05272080570980906
1638754202241849000,0.52184912109375,0.11797931369245052,-0.10672164129279553,0.09805296247303485
1638754202251813000,0.531813232421875,-0.28803309801518917,0.06007862112671136,0.00036649522483348846
1638754202261776100,0.541776123046875,-0.463629318895936,0.1832379678055644,0.0049506812099367374
1638754202271739100,0.5517392578125,-0.310340791413188,0.1013281847514212,-0.03464673129357397
1638754202281702400,0.561702392578125,0.07733633765876292,-0.0450169533342123,-0.0013929156631231306
1638754202291665400,0.57166552734375,0.3065875763595104,-0.12222506150342523,-0.004683773902058601
1638754202301628400,0.58162841796875,0.2533008073300123,-0.10867723233997821,-0.015568667466565966
1638754202311591200,0.591591064453125,-0.0011497545570135115,-0.0128658382486552,-0.010665478660166263
1638754202321554200,0.60155419921875,-0.24490824203789233,0.039018151310831306,0.0044694004990160465
1638754202331517200,0.61151708984375,-0.30008301677107807,0.03625876960009336,0.053197921702265734
1638754202341481200,0.621481201171875,-0.1620990259259939,0.018422814788669348,0.030450229451805352
1638754202351444200,0.6314443359375,0.06102583884894847,0.007362199331074953,-0.011778262207657098
1638754202361407200,0.6414072265625,0.1823252368748188,-0.016559578200057146,-0.04716529047451913
1638754202371370200,0.651370361328125,0.12568915741741657,-0.05378916559368371,-0.03758833770342171
1638754202381333200,0.661333251953125,-0.059112114182114595,-0.0587624239616096,-0.0028575813882052896
1638754202391296300,0.671296142578125,-0.2293114444553852,0.0069136518459767095,0.01805566197670996
1638754202401259300,0.68125927734375,-0.24512685322463512,0.07586809173710644,0.03282499575912952
1638754202411222300,0.69122216796875,-0.10561199955046176,0.03743658120781183,0.00620345775000751
1638754202421186300,0.701186279296875,0.05907236669361591,-0.06820150263197719,-0.00977569021359086
1638754202431149300,0.7111494140625,0.1298795948445797,-0.09205730225481093,-0.026218802427127957
1638754202441112300,0.7211123046875,0.05874854156672954,-0.030282106343284248,-0.04599909623935818
1638754202451075300,0.731075439453125,-0.100874449634552,0.029560148744285104,-0.0062275692779570815
1638754202461038300,0.741038330078125,-0.17859774078428745,0.04738192889988422,0.02747369785904884
1638754202471001000,0.7510009765625,-0.1313607733130455,0.019522519658878443,0.01996872905641794
1638754202480964000,0.760964111328125,-0.020340777239203453,-0.01668473894968629,0.0011781769338995217
1638754202490927000,0.770927001953125,0.04058744645416736,-0.03801116622537374,-0.009393851289153099
1638754202500890400,0.780890380859375,0.060036243289709086,-0.042595571406185626,-0.006951864964514971
1638754202510854100,0.790854248046875,0.03816811035275459,-0.060519642892479894,0.014518135500326752
1638754202520817200,0.800817138671875,-0.04473521378338337,-0.07640672865845262,0.01478964591808617
1638754202530780400,0.810780517578125,-0.11756956384778022,-0.031107305121049283,-0.00046864042505621905
1638754202540743400,0.820743408203125,-0.10915420220196247,0.04761383795961737,0.019129428688064217
1638754202550706200,0.8307060546875,-0.09044131842553615,0.0757375241599977,-0.04247632894068956
1638754202560669200,0.840669189453125,-0.01356090784072876,-0.04965513452887535,-0.02790675551407039
1638754202570632200,0.850632080078125,0.06273205824494361,-0.0484801724653691,0.12126746851764619
1638754202580595200,0.86059521484375,0.031443186011910436,-0.051719592778012156,0.016073767444491384
1638754202590559200,0.870559326171875,-0.05983633680343627,0.010395137286186218,-0.020927052694559096
1638754202600522200,0.880522216796875,-0.12265548880994319,0.08068038738965988,-0.012411737805604934
1638754202610485200,0.8904853515625,-0.11603811649680137,0.08106580651067197,-0.021947116457298396
1638754202620448300,0.9004482421875,-0.042269700452685355,0.04935257138572633,0.01459967630393803
1638754202630411300,0.910411376953125,0.027048750445246694,-0.02723141353577375,0.0484491197399795
1638754202640374300,0.920374267578125,0.01946340988278389,-0.1326239981818944,-0.013648513058945535
1638754202650337300,0.930337158203125,-0.03199672824144363,-0.14664032163992524,-0.0531038136780262
1638754202660300300,0.94030029296875,-0.09422902027070522,-0.06604220570623874,-0.06285583075508475
1638754202670264300,0.950264404296875,-0.10186872136890887,0.012642039430141448,-0.047873438743874425
1638754202680227300,0.960227294921875,-0.08561024500727653,0.032939708179980515,-0.07119695812091231
1638754202690190300,0.9701904296875,-0.0435223308622837,-0.0016663257770240306,-0.10977781399302183
1638754202700153300,0.9801533203125,-0.03385609237253666,-0.09205839823335409,-0.0100615214176476
1638754202710116000,0.9901162109375,-0.05361293224394321,-0.07967625184841454,0.005416837416961789
1638754202720079000,1.0000791015625,-0.06161912856698036,0.021024375589191912,-0.023253815141692755
1638754202730042000,1.0100419921875,-0.07414309457540512,0.0369820423733443,0.008282090654969215
1638754202740005400,1.02000537109375,-0.10389116710722446,-0.0035219635810703038,-0.011861556576937436
1638754202749969200,1.02996923828125,-0.09032441404759883,0.01567548884190619,-0.025190847618877885
1638754202759932200,1.03993212890625,-0.07404021872282028,0.01313479138314724,0.008570771403238177
1638754202769895400,1.0498955078125,-0.04988426710963249,0.03706723643876612,0.03109897568412125
1638754202779858400,1.0598583984375,-0.07036474508047104,0.08686755159199237,0.02258212642520666
1638754202789821200,1.0698212890625,-0.05971943242549896,0.10258476068377494,0.0026961072161793705
1638754202799784200,1.0797841796875,-0.02821837874650955,0.15270049846172332,-0.006248027544096112
1638754202809747200,1.089747314453125,-0.011535539492964745,0.1745556988518685,0.0054108460675925014
1638754202819710200,1.099710205078125,-0.03543488599658012,0.08581563138626515,0.021173793997243045
1638754202829674200,1.10967431640625,-0.039347675526142115,0.004600552598014474,0.021568054011836646
1638754202839637200,1.11963720703125,-0.024931612160801885,-0.012378200862184167,-0.0010978051740676163
1638754202849600300,1.129600341796875,-0.033164602977037425,-0.020870134875550866,-0.009373685283958912
1638754202859563300,1.139563232421875,0.043639819762110704,-0.04254259910993278,-0.023188787081465125
1638754202869526300,1.1495263671875,1.6599322765946387,-0.2754261298984289,-0.008485577337816358
1638754202879489300,1.1594892578125,-0.38990240390598774,-0.021799268951825795,-0.649818903048709
1638754202889452300,1.169452392578125,-1.7484107705146072,-0.0340670317094773,0.3781986682392657
1638754202899416300,1.179416259765625,-1.041724974927306,0.005480623368173837,0.7986419755551963
1638754202909379300,1.18937939453125,-0.06591828706562519,0.13063085160329937,-0.19254114513657986
1638754202919342300,1.19934228515625,0.40000469572544095,-0.12137567813247442,-0.21797617677487433
1638754202929305300,1.209305419921875,0.5022971954643726,-0.26854152148384597,0.01939341338649392
1638754202939268400,1.219268310546875,0.4215367285758257,-0.16779628771953284,-0.1273055065728724
1638754202949231000,1.229231201171875,0.12281038711071014,-0.08237067856416105,0.006060615213215351
1638754202959194000,1.239194091796875,-0.19832944621443746,-0.02826766124833375,0.17554909380339084
1638754202969157000,1.2491572265625,-0.34797874041199683,0.035618535467796024,0.016918620770797133
1638754202979121200,1.25912109375,-0.28442542891204353,0.0673205550789833,-0.07794752835966647
1638754202989084200,1.269084228515625,-0.06855564983189105,0.02574281894583255,-0.05397650485932827
1638754202999047200,1.279047119140625,0.17053718392550946,0.0001930018214508891,-0.06824979875311254
1638754203009010400,1.289010498046875,0.29033026904165743,0.006159764738753438,-0.04311068132147193
1638754203018973400,1.298973388671875,0.18755495422184465,0.0024714316148310897,-0.0037339988965541123
1638754203028936400,1.3089365234375,-0.035602643778920175,-0.00822042359560728,-0.04744315756782889
1638754203038899500,1.3188994140625,-0.21195991216003893,0.03858458219915628,-0.021084216017648576
1638754203048863500,1.328863525390625,-0.20789456241726875,0.08964293458946049,0.03035422173142433
1638754203058826500,1.338826416015625,-0.08271627713143825,0.07601151879578828,0.06093026951998472
1638754203068789200,1.348789306640625,0.07444236978292465,0.00656213499456644,0.053811815816909074
1638754203078752300,1.358752197265625,0.12525427313148974,-0.05034731804411858,0.011964724690467119
1638754203088715300,1.36871533203125,0.0727449182152748,-0.07125380287468433,-0.04940189042016863
1638754203098678300,1.37867822265625,-0.05331891773343086,-0.025604944845102725,-0.044974064040556545
1638754203108641300,1.388641357421875,-0.15020692808032035,0.016000592610426245,-0.0024500235006213187
1638754203118604500,1.3986044921875,-0.17010113059580326,0.031898528563976285,0.0316900003798306
1638754203128568300,1.408568359375,-0.08646890766322612,0.02374327915906906,0.03157623780705034
1638754203138531300,1.41853125,-0.018825111979246138,-0.00689144001416862,0.009634089785814285
1638754203148494300,1.428494384765625,0.00012508768439292906,-0.02669336113631725,-0.01027457964643836
1638754203158457300,1.438457275390625,-0.026867548659443855,-0.034223756641149516,-0.026307649754360316
1638754203168420400,1.44842041015625,-0.059148354539275166,-0.029648996071517466,-0.00798069655559957
1638754203178383400,1.45838330078125,-0.07384206580221653,-0.013492701442725956,0.013924626586586237
1638754203188346400,1.468346435546875,-0.060736500513553615,-0.002733918475918472,-0.017282997103780506
1638754203198310400,1.478310302734375,-0.004616553884744644,-0.008342588670551777,-0.04182926320880651
1638754203208273400,1.4882734375,0.0339326647400856,-0.009244944337755441,-0.0519886189777404
1638754203218236400,1.498236328125,0.04454758225679397,0.0007458499312400817,-0.057037061473727224
1638754203228199200,1.50819921875,0.036221652460098265,0.0020484934950247406,-0.04007430930025875
1638754203238162200,1.518162109375,0.005192307946085929,-0.01345978555381298,0.004869651862978935
1638754203248125400,1.52812548828125,-0.017350363251566886,-0.015601985214278101,0.04019903165847063
1638754203258088400,1.53808837890625,-0.025842297264933586,-0.008607230956107378,-0.002898863246664405
1638754203268052200,1.54805224609375,-0.0256803847014904,-0.009627148588374256,0.018409516915678978
1638754203278015500,1.558015380859375,-0.04727613043785095,-0.02867825134322047,0.032842239154875275
1638754203287978500,1.567978515625,-0.07160743861794472,-0.0204092758981511,-0.01874276745803654
1638754203297941500,1.57794140625,-0.12385083607435225,0.013796762423217295,0.01364807466752827
1638754203307904300,1.587904296875,-0.17457681470513342,-0.01098930378705263,0.04430500567257404
1638754203317867300,1.5978671875,-0.2446136430054903,-0.028785072718560695,0.06533836828581989
1638754203327830300,1.607830322265625,-0.16533435458540915,0.011688830358535051,0.07706796904616058
1638754203337794300,1.617794189453125,0.044048985084891315,0.03436009637191891,-0.0016496669031679629
1638754203347757300,1.62775732421875,0.20463059218525886,0.024808460705168543,-0.05227152757234871
1638754203357720300,1.63772021484375,0.1648001015782356,0.00208393013458699,-0.054899757184088224
1638754203367683300,1.647683349609375,-0.0008773673564195632,-0.02289747598469257,-0.039002807611227035
1638754203377646300,1.657646240234375,-0.1617775388866663,-0.0309616130400449,-0.013818243602663278
1638754203387609300,1.667609375,-0.21237024652659892,0.009140862908773124,0.003307078721374273
1638754203397572400,1.677572265625,-0.1608838049173355,0.034044746812433004,-0.006655804627388715
1638754203407536400,1.687536376953125,-0.06334463718533516,-0.005321706479415297,-0.047577597602456806
1638754203417499400,1.69749951171875,0.03356733855903148,-0.05548186792097985,-0.05568111682012677
1638754203427462400,1.70746240234375,0.04945931969583034,-0.055547151709534226,-0.024934242509305475
1638754203437425400,1.71742529296875,-0.028508301603794098,-0.00993771237488836,-0.016472192177549003
1638754203447388400,1.727388427734375,-0.1254436582237482,0.04421067845262587,-0.009329992272704838
1638754203457351400,1.737351318359375,-0.1416302383929491,0.05581683549638837,-0.007033186572417616
1638754203467314200,1.747314208984375,-0.07669161001443862,0.006830357476696372,0.006938713221997022
1638754203477278200,1.7572783203125,0.017200141125917435,-0.04689633734002709,0.022643793484568596
1638754203487241200,1.7672412109375,0.04979191265106201,-0.0487549342861399,0.037332609376683826
1638754203497204200,1.777204345703125,-0.012394202148914336,-0.026631474881246685,0.02899886159971356
1638754203507167200,1.787167236328125,-0.09800853880941868,-0.007703487049415707,0.018210998668894172
1638754203517130500,1.797130615234375,-0.10437047505676746,0.008905373652465642,0.013228168755024671
1638754203527093500,1.807093505859375,-0.02718494404554367,-0.0049825011203065515,0.01699227052889764
1638754203537056500,1.817056396484375,0.04573240812718868,-0.02407145166750997,0.0066688833046704525
1638754203547020500,1.8270205078125,0.07063537871539592,-0.03162420513462275,-0.005904986260086298
1638754203556983300,1.8369833984375,0.03013034984767437,-0.014305150336772203,0.004262187489122152
1638754203566946300,1.8469462890625,-0.04613865084052086,-0.011990407120995222,-0.0018446780186146497
1638754203576909300,1.856909423828125,-0.1043599536627531,-0.014015592805668711,0.01344473411515355
1638754203586872300,1.866872314453125,-0.1234042613506317,-0.0038822482608258722,0.009244579011574387
1638754203596835300,1.87683544921875,-0.08634966519773006,-0.012267689692415297,0.0021886691506952044
1638754203606798300,1.88679833984375,-0.02937690113186836,-0.02817355322409421,-0.0013257687110453844
1638754203616762400,1.896762451171875,0.00876724382340908,-0.01968823161460459,-0.008209609940648078
1638754203626725400,1.906725341796875,-0.008728665378689765,-0.012987236138619481,0.003051934916526079
1638754203636688100,1.916688232421875,-0.06514730269312859,-0.011994462241604923,-0.007293956400454044
1638754203646651400,1.9266513671875,-0.08254559673964977,0.018414631482213735,-0.011540946320444345
1638754203656614400,1.936614501953125,-0.06419920818805694,0.040875469615310425,-0.011179711792618036
1638754203666577400,1.946577392578125,-0.039144846430420877,0.008955058013089,-0.011557239868119358
1638754203676541400,1.95654150390625,-0.0014841010779142378,-0.04446837954074144,-0.02418269348964095
1638754203686504400,1.96650439453125,0.0201034613519907,-0.04250014820769429,-0.022520459365844726
1638754203696467500,1.976467529296875,-0.03128185797035694,-0.015378295993618667,-0.010906520874425769
1638754203706430500,1.986430419921875,-0.10517419265508651,0.012653620270080863,-0.016916867205128073
1638754203716393200,1.996393310546875,-0.131307581821084,0.022165837241895494,-0.010476751155033708
1638754203726356200,2.006356201171875,-0.0832499456167221,0.010437295927479863,0.007574819168448448
1638754203736319200,2.0163193359375,-0.015052023181319235,-0.002261588256433606,-0.013502967108413576
1638754203746283300,2.026283203125,0.013152327039837836,-0.018149660403095184,-0.0235585702419281
1638754203756246300,2.036246337890625,-0.018958967491984367,-0.011240867395326495,-0.0379649889960885
1638754203766209300,2.046209228515625,-0.051420390635728834,-0.007797923867218196,-0.023744448202848434
1638754203776172300,2.05617236328125,-0.06296411343514918,0.005039090145751834,-0.008824234707653523
1638754203786135600,2.066135498046875,-0.06281739844083786,0.016074534629471598,0.013786752485856413
1638754203796098300,2.076098388671875,-0.057283145189285276,-0.0179425204584375,0.007911065385490655
1638754203806061300,2.086061279296875,-0.029601942059397694,-0.01965264884456992,-0.005201952557265758
1638754203816025300,2.096025390625,-0.024050153151154517,-0.030201296192035078,0.014743030297383665
1638754203825988400,2.10598828125,-0.030935236489772793,-0.023434943862259385,-0.0035133418831974268
1638754203835951400,2.115951416015625,-0.05324643701910972,-0.03192808345202357,-0.002877309001982212
1638754203845914400,2.125914306640625,-0.046102995005249975,-0.026478549341857432,0.009897782223299146
1638754203855877400,2.13587744140625,-0.03145429192781448,-0.02003616826944053,-0.002961918545514345
1638754203865840400,2.14584033203125,-0.03218786689937114,0.0003413242509588599,-0.02243307334333658
1638754203875804400,2.155804443359375,-0.039489129823446274,0.014003537041693924,0.006549129382520913
1638754203885767400,2.165767333984375,-0.06090951899290085,0.0028661665534600615,-0.011925123332440852
1638754203895730200,2.175730224609375,-0.035810733571648594,-0.011609554577246307,0.010359189189970492
1638754203905693200,2.185693115234375,-0.018135960671305656,-0.018904826151952145,0.012252090264484285
1638754203915656400,2.195656494140625,0.0065735331714153284,0.014211115377768873,-0.011669979527592658
1638754203925619500,2.205619384765625,-0.018396657434105873,-0.014353154196962713,0.031611966707557435
1638754203935582500,2.21558251953125,-0.06015314766764641,-0.06653378861546516,0.0018315262760967015
1638754203945546500,2.22554638671875,-0.03486263906657695,-0.005395319704897702,-0.005584449068829417
1638754203955509500,2.235509521484375,-0.04344283588528633,0.03155252813789993,0.025426848331838843
1638754203965472500,2.245472412109375,-0.09722703304290771,-0.0390464275572449,-0.02908653988316655
1638754203975435300,2.255435302734375,-0.05577741680145264,-0.03332267961557955,-0.0443229797206819
1638754203985398300,2.265398193359375,-0.02326397120952606,0.027451851353421805,0.014289149050042032
1638754203995361300,2.275361328125,-0.03342471521794796,-0.0019401012171059845,-0.03609619944952428
1638754204005325300,2.2853251953125,-0.06752455321848393,-0.03692212887965143,-0.02003346485570073
1638754204015288300,2.295288330078125,-0.066314008384943,-0.0014396774142980575,0.0011712357364594935
1638754204025251300,2.305251220703125,-0.04222469226717949,0.011355360620468853,-0.008030015590041876
1638754204035214300,2.31521435546875,-0.06183131001293659,-0.020262012914568184,0.011691752967983483
1638754204045177300,2.32517724609375,-0.053635728597640986,-0.036740269506722684,-0.003789893802255392
1638754204055140600,2.335140625,-0.009458148697018623,0.0009825082313269376,-0.017025661341845987
1638754204065104400,2.3451044921875,0.010876198801398276,-0.01503733706884086,-0.02642272750139236
1638754204075067600,2.355067626953125,-0.012250409764051437,-0.022183190235495566,0.005122603710740805
1638754204085030700,2.36503076171875,-0.04859481182098389,-0.015046689419075845,0.01853577364385128
1638754204094993400,2.374993408203125,-0.07565817531347274,0.010170315554365515,-0.003870923149213195
1638754204104956400,2.384956298828125,-0.06910042423307895,0.027671448920853433,0.006230345756933093
1638754204114919400,2.39491943359375,-0.05772796634733677,-0.010777305004186928,-0.007937003544345497
1638754204124882400,2.40488232421875,-0.01765431463420391,-0.04001808560099453,0.0013839286390691995
1638754204134846500,2.414846435546875,0.01692892296910286,-0.024844445334002374,-0.003585457271337509
1638754204144809500,2.4248095703125,-0.008515899410843849,-0.0091677143830806,-0.016565131158009172
1638754204154772500,2.4347724609375,-0.05959434474110603,-0.00012278612945228814,-0.014524419110640882
1638754204164735500,2.444735595703125,-0.07446341257095336,0.0008042290549725294,-0.015279548326879739
1638754204174698200,2.4546982421875,-0.0626934798002243,0.005618314805813133,-0.003995572442188859
1638754204184661500,2.46466162109375,-0.021148586490750312,0.002593523624539375,-0.006260813960433006
1638754204194625300,2.474625244140625,-0.010553542718291281,-0.00563712910413742,-0.007455065246298909
1638754204204588300,2.48458837890625,-0.01790565904676914,-0.011098682445660233,0.001076104798913002
1638754204214551600,2.494551513671875,-0.023933833295106885,-0.01341886902153492,0.00320646789111197
1638754204224514600,2.5045146484375,-0.058284431186318396,-0.005573562348634004,0.005723711409047246
1638754204234477600,2.5144775390625,-0.08873802163898944,-0.01878631433881819,-0.011068798764050007
1638754204244440600,2.524440673828125,-0.06988076095581054,-0.027604192370921373,-0.022472747766599056
1638754204254404600,2.534404541015625,-0.050102293774485586,-0.003388108068332076,-0.02198101872690022
1638754204264367600,2.54436767578125,-0.029313188245892522,-0.011999942134320735,-0.009601210429519414
1638754204274330400,2.554330322265625,-0.036409283986687656,-0.023859818210825324,-0.0021457798570394516
1638754204284293400,2.56429345703125,-0.047317631492018696,-0.022332937437109648,-0.017787147233635187
1638754204294256400,2.57425634765625,-0.052473699080944056,0.007720511249452829,-0.007283727267384529
1638754204304219400,2.584219482421875,-0.07039455569684505,0.013323372757807372,-0.008886340158432721
1638754204314183400,2.594183349609375,-0.08334230007529259,-0.016450053410977123,0.004999854113906622
1638754204324146400,2.604146484375,-0.061703299719095224,-0.018737214500084517,0.004587766181677579
1638754204334109400,2.614109375,-0.03366846084594726,0.008642740660905838,-0.00782258338443935
1638754204344072700,2.62407275390625,-0.0178682496458292,-0.008099902488477528,-0.022704949087277052
1638754204354035500,2.634035400390625,-0.0428209045946598,-0.013688881601952016,-0.002189692064002156
1638754204363998500,2.64399853515625,-0.0383200860440731,-0.008329473460651934,0.01191964343972504
1638754204373962500,2.65396240234375,-0.03725567168295383,0.006214490600675344,0.014220102401822804
1638754204383925500,2.663925537109375,-0.05257949754297733,-0.010847557228803635,-0.005294307015836238
1638754204393888500,2.673888427734375,-0.054146016207337375,-0.02898885166235268,-0.0017470628630369901
1638754204403851500,2.6838515625,-0.027201310658454894,-0.003154299312457442,0.0029191023170948025
1638754204413814500,2.693814453125,-0.012118307816982268,0.005387611322477459,0.003968611370027065
1638754204423777500,2.703777587890625,-0.017985154023766516,-0.005192527141794562,-0.0005270195487886667
1638754204433741600,2.713741455078125,-0.02648468682169914,-0.005042706874944269,-0.013158610650151966
1638754204443704300,2.723704345703125,-0.029117957934737204,-0.01073890922255814,-0.010733867721259593
1638754204453667300,2.733667236328125,-0.05065642052590847,-0.014534757841564714,0.0001752835016697645
1638754204463630300,2.74363037109375,-0.06099544371068477,-0.010414389975927769,-0.00332899829223752
1638754204473593600,2.753593505859375,-0.049962593042850494,-0.01095562071315944,-0.005947217966616154
1638754204483556600,2.763556640625,-0.042479543811082834,-0.007463942672498523,-0.015416618710011242
1638754204493520400,2.773520263671875,-0.028368016350269316,-0.03088303137850016,-0.015888912396878004
1638754204503483600,2.783483642578125,-0.019532967987656594,-0.02186221465282142,-0.007800006226450204
1638754204513446700,2.79344677734375,-0.03529050908982754,0.004275046970695257,-0.003263385710120201
1638754204523409400,2.803409423828125,-0.046699791854619976,0.01208597644995898,-0.0018038345515727996
1638754204533372400,2.813372314453125,-0.04957037885487079,0.012633490797504782,0.002954904282838106
1638754204543335400,2.82333544921875,-0.031055647999048232,0.0034304128400981424,-0.0015654957510530948
1638754204553299500,2.833299560546875,-0.006554828470945358,-0.019340806416422128,0.013073270454257727
1638754204563262500,2.843262451171875,0.005485153412818908,0.004966061442159116,-0.04040054557994008
1638754204573225500,2.8532255859375,-0.005980243453383445,0.029144005691446363,-0.011761530268564819
1638754204583188500,2.8631884765625,-0.10235036740601063,-0.06294416662566363,0.030514526859670876
1638754204593151500,2.8731513671875,-0.15584639527201652,-0.07606522174440324,-0.007718100096657872
1638754204603114200,2.8831142578125,-0.11119067646563052,0.004319762895256281,0.03573255376890302
1638754204613078300,2.893078369140625,-0.044427755269408224,0.024032142570428548,0.009326996598020195
1638754204623041300,2.903041259765625,0.028815760117769238,0.005688238236866891,-0.03214497760571539
1638754204633004500,2.913004638671875,0.07168868716061115,-0.002637253168411553,-0.022042758851498364
1638754204642967600,2.922967529296875,0.013618775507807731,-0.03745689334347844,-0.0036016777537763115
1638754204652930600,2.9329306640625,-0.08462474110126494,-0.025886647863313555,-0.00045534255206584927
1638754204662893600,2.9428935546875,-0.12465221558511257,0.015457827503234147,0.008723843073099851
1638754204672857600,2.952857666015625,-0.0864478648751974,0.05955087092556059,0.0051087943810969585
1638754204682820600,2.962820556640625,-0.008299041789770126,0.08972228343598544,-0.01626680579856038
1638754204692783400,2.972783447265625,0.045863341030478476,0.03781812787130475,-0.04879859076477587
1638754204702746400,2.982746337890625,0.05411328298151493,0.01963650142736733,-0.05360628330744802
1638754204712709400,2.99270947265625,0.0612339286416769,-0.05292845711112022,-0.03169555333778262
1638754204722672400,3.00267236328125,0.02965747163891792,-0.10101246986575424,-0.16082608338072896
1638754204732636400,3.012636474609375,0.0508726936250925,-0.025469226168841123,-0.18477891363725066
1638754204742599400,3.022599365234375,2.6058950303345916,-0.8158947967164218,0.3426297805994749
1638754204752562400,3.0325625,1.5900748965144156,0.5011288092721253,-0.8122084363538772
1638754204762525400,3.042525390625,-0.9152548962652682,1.8456812043078243,-0.011960048515349625
1638754204772488400,3.052488525390625,-2.624078337278962,0.41702929762136187,0.9979570718061178
1638754204782451500,3.062451416015625,-3.1840812872588633,-0.9309682328995317,0.8584459444589913
1638754204792415500,3.07241552734375,-2.0874054094821215,-1.4514545074619352,-0.0494887649860233
1638754204802378500,3.08237841796875,-0.02775134575664997,-0.33770668151620775,-0.6216168178498744
1638754204812341500,3.092341552734375,1.4379752865552902,0.6056978025756776,-0.2281144897557795
1638754204822304500,3.102304443359375,2.0029536868602036,0.6712248253013938,0.03854066999219358
1638754204832267500,3.112267578125,1.7273299885630606,-0.03510839398857206,-0.06864807735569775
1638754204842230500,3.12223046875,0.6937257762491703,-0.6824754103731364,-0.2141618791837245
1638754204852194600,3.132194580078125,-0.38566578924953937,-0.6259403801374137,-0.10099719923138618
1638754204862157600,3.142157470703125,-1.086153314718604,-0.09283380305264144,0.12678871615715323
1638754204872120300,3.152120361328125,-1.2154904732495546,0.42763066153675316,0.15472659746184944
1638754204882083300,3.162083251953125,-0.7090262212336063,0.49267399239875376,0.04659355500116944
1638754204892046300,3.17204638671875,0.07458557764589786,0.14740206326004116,-0.0016148147854954003
1638754204902009600,3.182009521484375,0.616201807063818,-0.18544439180865882,-0.0157147248737514
1638754204911973400,3.191973388671875,0.8045745074093341,-0.2959928979132324,-0.05322495583966374
1638754204921936400,3.201936279296875,0.4888035076409578,-0.19698522853124886,-0.07305705290436744
1638754204931899600,3.211899658203125,-0.1714765106022358,-0.010994820212386548,-0.04475464913621545
1638754204941862700,3.221862548828125,-0.6764829650253057,0.12125380531847477,0.06356807067766786
1638754204951825400,3.231825439453125,-0.6720961282432079,0.179905900773406,0.13678235997036098
1638754204961789400,3.24178955078125,-0.23949089316427707,0.09671835286840796,0.13480726050511002
1638754204971752400,3.25175244140625,0.18946049558222292,-0.0975280618160963,0.03285582928881049
1638754204981715500,3.261715576171875,0.37729075961410996,-0.17878866024650633,-0.10224939124956726
1638754204991678500,3.271678466796875,0.2876549123525619,-0.08126611485574393,-0.11941796819344162
1638754205001641500,3.281641357421875,0.023364508974552153,0.04595971407704055,-0.02059007582515478
1638754205011604500,3.2916044921875,-0.21479133619368074,0.09635565703585744,0.05685819777548313
1638754205021568500,3.301568603515625,-0.31612405098974705,0.05334876488242298,0.09688443015031516
1638754205031531800,3.31153173828125,-0.18599544982016086,-0.0206496239926666,0.03197261671349406
1638754205041494500,3.32149462890625,0.01960486418008804,-0.038996012544259426,-0.08642053847685456
1638754205051457500,3.33145751953125,0.1432803436875343,-0.04997811940554529,-0.08912285623811185
1638754205061420800,3.3414208984375,0.13309388071596623,-0.03845346663277596,-0.04165850975178182
1638754205071383800,3.3513837890625,0.0037613983601331707,-0.008001885474100709,0.016331103206425904
1638754205081347600,3.36134765625,-0.15916589508354662,-0.0074294924136251205,0.04190013648793101
1638754205091310800,3.371310791015625,-0.21056641197502612,-0.004450988059490919,-0.022761136253923175
1638754205101273900,3.38127392578125,-0.12870587489008903,-0.004818433132395148,-0.05561345841139555
1638754205111236900,3.39123681640625,0.009425999993085861,-0.023150391299836336,-0.02699519362710416
1638754205121199600,3.40119970703125,0.09991057303845882,-0.03726115157566964,0.00504939234405756
1638754205131162600,3.41116259765625,0.046055064210295676,-0.03534264113586396,0.011886179561540484
1638754205141126700,3.421126708984375,-0.06763970403075217,-0.011217157726176083,0.0039550943013280625
1638754205151089700,3.431089599609375,-0.16010346819460392,0.02649177414961159,-0.006153919519856572
1638754205161052700,3.441052734375,-0.14012392548322677,0.023633425576426087,0.01285794720314443
1638754205171015700,3.451015625,-0.04074994353950023,0.022965207458660004,0.02480330960601568
1638754205180978700,3.460978759765625,0.036357261538505554,0.010428674229606985,0.043079555530846116
1638754205190942700,3.470942626953125,0.06232172387838363,-0.024316001013107595,0.026771467873826622
1638754205200905700,3.48090576171875,0.001264320847392082,-0.01802939502429217,-0.006349734352901578
1638754205210868700,3.49086865234375,-0.09165829299986362,0.01738981847912073,-0.012728183343634009
1638754205220831700,3.500831787109375,-0.1515600962549448,0.028523206911981104,-0.033793548530340195
1638754205230794800,3.510794677734375,-0.13730594545304775,-0.0018940701182931661,-0.02870397030636668
1638754205240757800,3.5207578125,-0.016192425388097762,-0.06672774028498679,-0.014198621222376823
1638754205250721800,3.5307216796875,0.08773732016384601,-0.07190718874949961,-0.03114069593399763
1638754205260684800,3.540684814453125,0.06675999858677387,-0.03265318285617977,-0.012696546096354722
1638754205270647800,3.550647705078125,-0.022432196560502052,-0.03696750239133834,-0.04655103103369474
1638754205280610800,3.56061083984375,-0.11410860973894596,-0.08369038286060095,-0.11287716824784874
1638754205290573800,3.57057373046875,-0.14155308150351048,-0.05564389008227735,-0.07016542311608791
1638754205300536600,3.58053662109375,-0.14064824161827563,0.025863632313907144,-0.06189005446285009
1638754205310500600,3.59050048828125,-0.17994681730568407,0.03196713682077825,-0.057611792621761554
1638754205320463600,3.600463623046875,-0.15560498773157597,-0.004126286149770021,-0.008733706879988312
1638754205330426600,3.610426513671875,-0.06812719528675079,-0.012349157430790365,-0.00985460066869855
1638754205340389600,3.6203896484375,-0.002031213566660881,0.0060620765179395675,-0.036089550513029096
1638754205350352600,3.6303525390625,-0.020249591824412345,0.04979921917468309,-0.05989866144992411
1638754205360316000,3.64031591796875,-0.11169161172509193,0.08308565843310206,-0.08222016417756677
1638754205370279700,3.65027978515625,-0.22300094613432883,0.07569595004059373,-0.08738573024719953
1638754205380243000,3.660242919921875,-0.23158289651870725,0.062312152332440016,-0.0548421817779541
1638754205390205700,3.670205810546875,-0.18176175777316092,0.05594546684473753,-0.03801408883482218
1638754205400168700,3.680168701171875,-0.108093879494071,0.052798985512554644,-0.014701090851798652
1638754205410131700,3.690131591796875,-0.042782326149940486,0.04820362054631114,-0.00961757704243064
1638754205420095700,3.700095703125,-0.029687866777181625,0.02980692657958716,0.010751914834603667
1638754205430058800,3.710058837890625,-0.03725800977051258,0.023299042522907255,0.0021676263626664877
1638754205440021800,3.720021728515625,-0.049313189223408695,0.035108357455953955,-0.016904665310680866
1638754205449984800,3.72998486328125,-0.06724748984277248,0.044870201807282864,-0.06520794683918356
1638754205459947800,3.73994775390625,-0.09561375262737273,0.02251724449545145,-0.10101510021425783
1638754205469910500,3.74991064453125,-0.09570961421728133,0.018674524527415633,-0.08676438347846269
1638754205479874600,3.75987451171875,-0.04882394440174102,0.00728745359443128,-0.04287614191323519
1638754205489837600,3.769837646484375,0.017903320959210395,-0.014828516623750327,-0.031516470443829894
1638754205499800600,3.779800537109375,0.058662616848945616,-0.059545756359025835,-0.017747034418955445
1638754205509763800,3.789763916015625,0.0238940858066082,-0.0762668087311089,-0.05640796978995204
1638754205519726800,3.799726806640625,-0.03570376606583595,-0.08686696707010269,-0.07468545782379805
1638754205529690600,3.809690673828125,-0.10623568440675735,-0.08207841761931776,-0.06440218341425061
1638754205539654000,3.81965380859375,-0.14653846870064735,-0.06137479841709136,-0.08123466027155518
1638754205549617000,3.829616943359375,-0.15152327137589452,-0.04505801599696278,-0.05242306487224996
1638754205559579600,3.83957958984375,-0.07640870141983032,-0.03300663593634963,0.01529562267884612
1638754205569542700,3.849542724609375,-0.003378536522388458,-0.011266659423708915,0.04300166798904538
1638754205579505700,3.859505615234375,0.043837388160824775,-0.023773966558277605,0.030157018658891317
1638754205589469700,3.8694697265625,0.03930675899386406,-0.016401903420314192,0.01371734051145613
1638754205599432700,3.8794326171875,0.023630466434359548,0.005401785978302359,0.010614113799110054
1638754205609395700,3.889395751953125,-0.02698912921249866,0.03998392760306597,-0.022101649431884286
1638754205619358700,3.899358642578125,-0.06750701756179332,0.059830345454066985,-0.05801818146556616
1638754205629321700,3.90932177734375,-0.0968663830369711,0.051139162541553373,-0.008523571260645985
1638754205639285800,3.91928564453125,-0.1402308929890394,0.04429426508285105,0.03413951242379844
1638754205649248800,3.929248779296875,-0.11556231567859648,0.02941854831650853,0.08805011244006454
1638754205659211500,3.93921142578125,-0.04584638989567756,0.0029096038363873957,0.13462569339312613
1638754205669174800,3.9491748046875,0.03488309733271599,-0.013661080279573797,0.1564187883324921
1638754205679137800,3.9591376953125,0.09136077135801315,-0.03329714331552386,0.1650045381091535
1638754205689100800,3.969100830078125,0.11689268749952315,-0.03900068871937692,0.13640490496009589
1638754205699064800,3.97906494140625,0.10833119538128376,-0.0350148339536041,0.067323916079849
1638754205709027800,3.98902783203125,0.06765256351232528,-0.027995675906538963,0.045685207984596486
1638754205718990800,3.998990966796875,0.01763034923672676,-0.03607296470440924,0.05627557558193803
1638754205728953900,4.008953857421875,-0.06381400826275348,-0.045269174529612065,0.04544869581498205
1638754205738916600,4.01891650390625,-0.12076456049680709,-0.04380253604315221,0.015932605408132076
1638754205748880600,4.028880615234375,-0.08607903156280516,-0.05151690981276333,-0.0012948621161282061
1638754205758843600,4.03884375,-0.03481003209650516,-0.04790829086154699,-0.03979680753313005
1638754205768806700,4.048806640625,0.04290566026866436,-0.04136610267646611,-0.07752177722826599
1638754205778769700,4.058769775390625,0.08125146527588367,-0.03682312548458576,-0.05833543072119355
1638754205788732700,4.068732666015625,0.06903378873765469,-0.0415024424072355,-0.020254267999529837
1638754205798695700,4.07869580078125,0.01622398957014084,-0.07217325580716133,0.097195249665156
1638754205808659700,4.08865966796875,-0.002482464465498924,-0.0699985421165824,0.15210370161235331
1638754205818622700,4.098622802734375,0.03413198670446872,-0.08270951859708875,0.18348207875974476
1638754205828585700,4.108585693359375,0.11848667869269847,-0.08605842716619372,0.14586630506012588
1638754205838548700,4.118548828125,0.1458867267936468,-0.06812851046100259,0.1073620580881834
1638754205848511700,4.12851171875,0.09883739084899425,-0.04395739781130105,0.024290830039232967
1638754205858475800,4.138475830078125,-0.04605681777596474,-0.02549702749121934,-0.12556414279825984
1638754205868438800,4.148438720703125,-0.2141010158419609,0.0007607552394270896,-0.29321057371832426
1638754205878401800,4.15840185546875,-0.3722054191738367,0.03278561359681189,-0.24503274520039556
1638754205888364800,4.16836474609375,-0.4003063090205192,0.07435238994453101,-0.04619242685437202
1638754205898327800,4.178327880859375,-0.25704759264290333,0.07052804588340222,-0.07294160983115434
1638754205908290600,4.18829052734375,-0.0560837062716484,0.04880549542959779,-0.10676160797700285
1638754205918254600,4.198254638671875,0.07869593557417393,0.0042281390890479085,-0.06092351098563522
1638754205928217600,4.208217529296875,0.13854279377162457,-0.06056918112263083,-0.025319296304136513
1638754205938180600,4.2181806640625,0.13270400461554527,-0.09269947261586785,-0.07865326547622681
1638754205948143600,4.2281435546875,0.0516571220010519,-0.09732468473110348,-0.1115327679015696
1638754205958107000,4.23810693359375,-0.05710311244726181,-0.09556140138562769,-0.05276475444938987
1638754205968070700,4.248070556640625,-0.1418219615727663,-0.02100464797541499,-0.08668280614223331
1638754205978033700,4.25803369140625,-0.16657763264477252,0.013110789453051984,-0.11312727055139839
1638754205987997000,4.267996826171875,-0.15186755476891994,-0.05577559017054736,-0.0787005386840552
1638754205997959700,4.277959716796875,-0.04814063831269741,-0.042824557856470345,-0.05424363136291504
1638754206007922700,4.287922607421875,0.05544950002133846,0.04753521976545453,-0.0544310436937958
1638754206017886700,4.29788671875,0.16241525226831435,0.046308965906128284,0.35101354153063147
1638754206027849200,4.30784912109375,0.04652735789716243,-0.004956088037416338,0.7771229483168571
1638754206037812000,4.31781201171875,0.10466624313294887,0.06984419180508702,0.30709205528292804
1638754206047775000,4.32777490234375,-0.009752747729420662,0.10577917281091212,0.05420530864652246
1638754206057738000,4.337738037109375,-0.30316987687051294,0.0009222294114530086,-0.028112434154003857
1638754206067701000,4.347700927734375,-0.35878538110852237,-0.15485511921234427,-0.2685599704559892
1638754206077665000,4.3576650390625,-0.2618582077950239,-0.1757789570365101,-0.324867329415679
1638754206087628000,4.3676279296875,0.00274842192530632,-0.2134171617636457,-0.2910010079100728
1638754206097591000,4.377591064453125,0.28733225626945497,-0.19202990767881273,-0.3143093297179788
1638754206107554300,4.38755419921875,0.38581776494085784,-0.0811314921580255,-0.2054862226339057
1638754206117517000,4.39751708984375,0.27649463591277595,-0.0268928292311728,-0.007437310393899678
1638754206127481000,4.407481201171875,0.10078501778542995,0.04136602961122989,-0.047825507948920126
1638754206137444000,4.417444091796875,-0.013013795351982115,0.12907540232222525,-0.17197835917714982
1638754206147407000,4.427406982421875,0.04192833966910839,0.24508239302840082,-0.2819864382620901
1638754206157370000,4.4373701171875,0.06454992132186889,0.1796585749488324,-0.13023396124020217
1638754206167333000,4.4473330078125,-0.3277536985069513,0.4354106844210997,0.28556104534585025
1638754206177297200,4.457297119140625,-0.39399756426513194,0.5102668957019224,-0.0023965032150968907
1638754206187260200,4.46726025390625,-0.470574607989192,0.39280820835009217,-0.02366064237691462
1638754206197223200,4.47722314453125,-0.5866852052003145,0.2643288356922567,0.2829854957694188
1638754206207186000,4.48718603515625,-0.5020744926244021,0.11098740897849202,0.3114468164263293
1638754206217149000,4.49714892578125,-0.14858546435832976,-0.12258191211707889,0.14304850769303737
1638754206227113000,4.507113037109375,0.18864917919933794,-0.3062792045300826,0.0693660163667053
1638754206237076000,4.517075927734375,0.42690030143558977,-0.4552711307974532,0.10266600922644138
1638754206247039000,4.5270390625,0.5429542000234127,-0.4971455117896199,0.1282156436877325
1638754206257002200,4.537002197265625,0.5274813210815191,-0.42442846796195954,0.13712014055736363
1638754206266965200,4.54696533203125,0.3933791401058435,-0.2476739073589444,0.08976371142491697
1638754206276928300,4.55692822265625,0.16276304279267786,0.02149718073271215,-0.01054440956376493
1638754206286892300,4.566892333984375,-0.19760288550555705,0.06141746851503849,0.2748835109217092
1638754206296855300,4.576855224609375,-0.19879121850728987,-0.07435871008746325,0.3327447847925126
1638754206306818000,4.586818115234375,-0.01473638136088848,-0.3731236665299162,0.3143560549365356
1638754206316781000,4.596781005859375,0.2706155147463083,-0.6327131622079759,0.3236058581124991
1638754206326744000,4.606744140625,0.5918062014758586,-0.701639983439818,0.04586239118240774
1638754206336708000,4.6167080078125,0.7064186690837144,-0.7565073727242648,-0.19323095403164625
1638754206346671000,4.626671142578125,0.6238479379028081,-0.7955830994412303,-0.3322749022584408
1638754206356634000,4.636634033203125,0.33450960250794887,-0.9570519377049058,-0.25890154994651676
1638754206366597000,4.64659716796875,-0.018406009784340857,-1.1040865924246608,-0.30846016529835757
1638754206376560000,4.65656005859375,-0.33138533300757406,-1.224722265844792,-0.5792231987565756
1638754206386524200,4.666524169921875,-0.55127720721066,-1.1241300672177226,-0.7979829271245747
1638754206396487000,4.67648681640625,-0.6265846693903208,-0.8491707511134445,-0.5295416146121918
1638754206406450000,4.686449951171875,-0.5239999087065458,-0.08892547050248831,0.1633472724214196
1638754206416413200,4.6964130859375,-0.5863163718879223,0.5325459840599447,0.8965659778863191
1638754206426376200,4.706376220703125,-0.5789601639062166,1.2005242286555469,0.7883845662392676
1638754206436340000,4.716340087890625,-0.4909557172387838,2.0299409163765607,0.238621672581695
1638754206446303200,4.72630322265625,-0.30088205819427966,2.0369613165326417,0.24944084396623073
1638754206456266200,4.736266357421875,-0.05602233147323131,1.269014412035793,-0.07949662096519022
1638754206466229200,4.746229248046875,0.05226502476632595,1.1258180933699011,-1.0518360345751046
1638754206476192000,4.75619189453125,-0.4438081816166639,1.2339537661790847,-0.13915252316780388
1638754206486156000,4.766156005859375,-1.0251152009099722,0.3541886279027909,0.5030502057887614
1638754206496119000,4.776119140625,-0.7775275105297565,-0.12362469916827976,-0.1552644671982154
1638754206506082000,4.78608203125,-0.1956669490069151,-0.34583865964338184,0.0550797899261117
1638754206516045000,4.796045166015625,0.4469979175686836,-0.3566121652552858,0.054304056313261385
1638754206526008000,4.806008056640625,0.886329246032238,-0.30812647636458274,0.10064012942202388
1638754206535971000,4.81597119140625,0.9892442615836858,-0.13395988642815498,0.07630140512045472
1638754206545935000,4.82593505859375,0.63688102247715,0.03907296850429848,0.06719597885124384
1638754206555898000,4.835898193359375,0.022563129463791846,0.09000310967136174,0.04630918510183692
1638754206565860900,4.84586083984375,-0.3989963954657316,0.051811691508255896,-0.21833916486836968
1638754206575824100,4.85582421875,-0.5412848055064677,-0.00583486189963296,-0.3387344901939854
1638754206585787100,4.865787109375,-0.4035392995923757,-0.06189626500792801,-0.17442830961253494
1638754206595751200,4.875751220703125,-0.09858896904587745,-0.07703965626712889,-0.016171163404360412
1638754206605714200,4.885714111328125,0.21186521961390972,-0.10612309087775647,0.024522008446604012
1638754206615677200,4.89567724609375,0.45141924114227294,-0.18109448950346557,0.07212594606671482
1638754206625640200,4.90564013671875,0.5644347949475049,-0.21619097385853528,0.050056372273527085
1638754206635604200,4.915604248046875,0.4517617709696293,-0.18425098077300936,-0.005402699293754995
1638754206645567200,4.925567138671875,0.677412939351797,-0.1334044993014075,0.007421820563822984
1638754206655530000,4.935530029296875,1.1381471213281154,-0.25256670263549313,-0.20464118664450942
1638754206665493000,4.945492919921875,0.48652211870551104,-0.30532245179452,-0.44429837628640234
1638754206675456000,4.9554560546875,0.4809814357131719,-0.3718917135821655,-0.04428462047167122
1638754206685419000,4.9654189453125,0.3169090638875961,-0.39651846104487776,0.539396069150418
1638754206695383000,4.975383056640625,-0.19356383924782275,-0.04147231213045306,0.3927653190564364
1638754206705346000,4.985345947265625,-0.866209418067336,0.5007794113125652,0.00397613708935678
1638754206715309000,4.99530908203125,-1.5533938098490236,0.8324066633172332,-0.16144710135590284
1638754206725272000,5.00527197265625,-1.6555039387583732,0.6307123437795787,-0.15860628843940794
1638754206735235000,5.015235107421875,-1.0559329484999178,0.21048852443322538,-0.13193623511344194
1638754206745199000,5.02519921875,-0.4077507798075676,0.14361419701809064,-0.08086164397438987
1638754206755162000,5.035162109375,-0.08068447904288768,0.22752810470256954,-0.06638681789282709
1638754206765125000,5.045125,0.08198737833499908,0.20605960207507013,-0.14568020790349692
1638754206775088000,5.055088134765625,0.16800854223072528,0.1593388587639667,-0.22588567125778644
1638754206785051100,5.065051025390625,0.26367607087194916,0.10606184394350275,-0.1348351166264154
1638754206795015200,5.07501513671875,0.18031857322752476,0.06898444687032607,0.08962905219458044
1638754206804978200,5.084978271484375,0.28743980829715726,-0.05643828729640227,0.09682957642422989
1638754206814941200,5.094941162109375,0.19148527940809726,-0.18679551415666937,0.1191629522527568
1638754206824904200,5.104904296875,-0.033553894555568696,-0.2521671088586561,0.054280803301837294
1638754206834867000,5.114866943359375,-0.16883680974841117,-0.22644337820578364,-0.07308352078618481
1638754206844831000,5.1248310546875,-0.23788696509897708,-0.22728114420417694,-0.09160939409052953
1638754206854794000,5.1347939453125,0.09065642248094082,-0.3617908830674365,0.1454499062789604
1638754206864757000,5.144757080078125,0.16200667146742342,-0.37572657903730866,0.3078677158305421
1638754206874720000,5.154719970703125,-0.18046119656860826,-0.10674098531408235,0.2738465325567871
1638754206884683000,5.16468310546875,-0.4891004447609186,0.17400690586268902,0.14378102321866898
1638754206894647000,5.17464697265625,-0.47262803338766096,0.3142299078062177,0.05984408171847462
1638754206904610000,5.184610107421875,-0.2847977693557739,0.2852608750891872,0.0031537878558039662
1638754206914573300,5.1945732421875,-0.12546236292421817,0.19989209242127834,-0.030073797354847193
1638754206924536000,5.2045361328125,-0.011800327908992766,0.0859913258798886,-0.07453355519771576
1638754206934499000,5.2144990234375,0.11232698701918124,-0.07643813757686875,-0.1618410325769335
1638754206944463000,5.224463134765625,0.1920148562401533,-0.20036208455320448,-0.15690003251079468
1638754206954426000,5.234426025390625,0.22848551502525805,-0.30515937018729744,-0.08009933609869331
1638754206964389000,5.24438916015625,0.21140110923349856,-0.2623473430188373,-0.0015787936240434645
1638754206974352100,5.25435205078125,0.16833295187950134,-0.2407339885605499,-0.08717033393085002
1638754206984316200,5.264316162109375,0.36081717919707296,-0.27736988437734544,-0.00354516179356724
1638754206994279200,5.274279052734375,0.3766273272693157,-0.17268829754479229,0.12567951280623674
1638754207004242200,5.2842421875,0.0954676221549511,-0.011442920172912999,0.06830156547296792
1638754207014205000,5.294204833984375,-0.18501286852359772,0.08515914937206544,0.060709502908773715
1638754207024168000,5.30416796875,-0.13077800498902797,0.050802414001012215,0.048164969036355615
1638754207034133000,5.314133056640625,-0.050882630497217175,-0.013856063995556904,0.03592182926330715
1638754207044096000,5.324095947265625,0.032740824607014656,-0.09215829667756334,-0.03357946738824248
1638754207054058800,5.334058837890625,-0.014643442380428313,-0.08182018680823966,-0.010027911408990621
1638754207064021800,5.344021728515625,-0.13945932409465311,-0.0049691393152344965,0.045935529483854765
1638754207073984800,5.35398486328125,-0.21589783613085745,0.03055463967435062,0.003910232246294617
1638754207083948800,5.36394873046875,-0.11687281375527381,-0.010236247796891257,0.06467661644145846
1638754207093911800,5.373911865234375,0.040348961523175235,-0.021410488829948008,0.041262788432464004
1638754207103874800,5.383874755859375,0.1645616166472435,-0.024749387461692092,-0.10043730032630264
1638754207113838000,5.393838134765625,0.1235527299106121,-0.04831528249355033,-0.15251374371796844
1638754207123801000,5.403801025390625,-0.03880582373440265,-0.10436455677263438,-0.11629442934542894
1638754207133764900,5.413764892578125,-0.0962426981806755,-0.10872150073996745,-0.013615889430977404
1638754207143727900,5.423727783203125,-0.11812895129621029,-0.10593103890437632,0.0757624759381637
1638754207153691000,5.43369091796875,-0.11765490404367446,-0.09594077435834333,0.17473814274668692
1638754207163654000,5.44365380859375,0.03925006037056446,-0.06661587740834803,0.1613016650032252
1638754207173617000,5.453616943359375,0.1648445252418518,-0.09839673440940677,0.11734061393011361
1638754207183581000,5.463580810546875,0.20581191092431544,-0.12223255069013685,0.02694671484287828
1638754207193544000,5.4735439453125,0.14769582204222678,-0.14320355212427674,0.04537508258949965
1638754207203507000,5.4835068359375,-0.11303075137436389,-0.19993879937352613,0.08961210105977951
1638754207213470000,5.493469970703125,-0.4032733421325683,-0.04051027129841968,-0.054006534671410915
1638754207223434000,5.50343408203125,-0.44464813957214355,-0.012230864813365041,-0.08142755249515175
1638754207233396700,5.513396728515625,-0.32562779239416123,-0.1395727761401795,-0.006586392652988433
1638754207243359700,5.52335986328125,0.08211772671639919,-0.26024746639644725,-0.0019545681338757276
1638754207253322800,5.53332275390625,0.6541144813507795,-0.4302651016935706,-0.043823213504999875
1638754207263285800,5.54328564453125,0.7604758379638195,-0.4234244785511866,0.04542173474282026
1638754207273249800,5.553249755859375,0.3388122681379318,-0.12284599728020838,-0.04651880926452577
1638754207283212800,5.563212890625,-0.0875894361257553,0.011977045315923168,-0.401103012356162
1638754207293175800,5.57317578125,-0.49442602369785305,0.27042191013665867,-0.12958039270229638
1638754207303139000,5.58313916015625,-1.0425257699161767,0.7680710423331707,-0.02355155597925186
1638754207313101800,5.593101806640625,-1.1808014371842146,0.7499931685246527,-0.08659984056651591
1638754207323066000,5.603066162109375,-0.7294073304831982,0.2793728399639018,0.22044055759441106
1638754207333028900,5.61302880859375,-0.5715460882574319,0.12065087098926305,0.23799941249750553
1638754207342992000,5.622991943359375,-0.3532482052475214,0.1684762876066379,-0.09228471780251711
1638754207352955000,5.632954833984375,-0.11432137570679188,0.02770639237007126,-0.08124207639303058
1638754207362918000,5.64291796875,0.005405073913931847,0.007366491913702339,-0.1744760577443987
1638754207372882000,5.6528818359375,-0.08225333579480648,0.24943987585185093,-0.1955516885967925
1638754207382845000,5.662844970703125,-0.1850660600155592,0.3690305154647678,-0.0814397361232899
1638754207392808000,5.672807861328125,-0.3279284705519676,0.38627405734099446,-0.06756154249431565
1638754207402771000,5.68277099609375,-0.4587842169523239,0.32437782886568456,-0.07879992567161098
1638754207412735000,5.69273486328125,-0.5062608383983374,0.2933113672116771,-0.036436866113357246
1638754207422697700,5.70269775390625,-0.4855681789815426,0.3208637197975069,-0.036964808110753075
1638754207432660700,5.71266064453125,-0.31334348036050796,0.2996463971857913,-0.01859395640476141
1638754207442623700,5.722623779296875,-0.12016425651609897,0.2589080527525395,0.1598222583667375
1638754207452587000,5.7325869140625,-0.22918811033666134,0.3921285555228591,0.28824834820106626
1638754207462550800,5.74255078125,-0.2482470310717821,0.5304706025579944,0.34268399500474334
1638754207472513800,5.752513671875,-0.06903320421576499,0.45376529281176625,0.3475321291556582
1638754207482477000,5.76247705078125,0.1375134507238865,0.26700799177363516,0.3477342275990173
1638754207492440000,5.772440185546875,0.44628187825381754,0.07380281150406226,-0.0016731208439916372
1638754207502402800,5.78240283203125,0.5456207888841629,-0.11629218258941545,-0.526550762233138
1638754207512366800,5.792366943359375,0.5906476790904999,-0.08836931619076058,-0.8041101778332144
1638754207522329900,5.802329833984375,0.8128308791011571,-0.002774926339741796,-0.4607107645681128
1638754207532292900,5.81229296875,0.923853213262558,-0.20240082383919505,-0.01946079780058935
1638754207542255900,5.822255859375,1.6749948211699723,-0.8062973126139491,0.3794541481930762
1638754207552220000,5.832219970703125,1.7926824584394692,-1.211257219593972,0.6421651003599167
1638754207562183000,5.842182861328125,1.2243863118886946,-1.1951429740086197,0.6528662348553538
1638754207572146000,5.85214599609375,0.4721458028286695,-0.8354409164465963,0.3941303968645632
1638754207582109000,5.86210888671875,-0.3770832543432712,-0.287479921111837,0.03885757218794897
1638754207592071700,5.87207177734375,-1.2318395505040882,0.29885223286710677,-0.33345311572495845
1638754207602036000,5.882035888671875,-1.6486229470729827,0.4844449836378917,-0.8976879676535725
1638754207611998700,5.891998779296875,-1.3875947603613137,0.1282539024720434,-1.302371614975482
1638754207621961700,5.901961669921875,-0.5344096590399742,-0.47363589525595307,-1.030343164691329
1638754207631925000,5.911925048828125,0.17789046929776667,-0.41335579674039036,0.007131139654712751
1638754207641888800,5.921888671875,0.46127077307105063,0.07371130642886273,0.25442193858074025
1638754207651851800,5.931851806640625,0.22098142300546167,0.2744713864568621,0.019683349943510255
1638754207661815000,5.94181494140625,-0.15889876857995985,0.19886168992761522,-0.0794231356038712
1638754207671778000,5.951778076171875,-0.32012218071520326,0.09907191199092194,-0.08943433334007858
1638754207681741000,5.961740966796875,-0.4616641563028097,0.01649695672604721,0.04432031740613747
1638754207691705000,5.971705078125,-0.4419166687816381,-0.047963455114886165,0.15821469530593604
1638754207701667800,5.981667724609375,-0.24441490556299686,-0.06262555196343456,0.11803887099311686
1638754207711630800,5.991630859375,-0.18267478096485137,0.0007863280721008778,-0.08481619028644635
1638754207721593900,6.00159375,-0.04765606966614723,-0.01767490533108357,-0.018894259092165158
1638754207731558000,6.011557861328125,0.10372574741244316,-0.06801936926441267,-0.17016022210558876
1638754207741521000,6.02152099609375,0.14137363328337668,-0.14075947430725208,-0.5691295651676133
1638754207751484000,6.03148388671875,0.11586802062690257,-0.27088245858680454,-0.48424153348766263
1638754207761447000,6.041447021484375,0.27698095812499524,-0.33977048217821865,-0.3504283985864371
1638754207771410000,6.051409912109375,0.7053887415140867,-0.24496934284167363,-0.5003260049892589
1638754207781374000,6.0613740234375,0.6168576406240462,0.12174836563607677,-0.433507079289481
1638754207791336700,6.071336669921875,0.16422493203878402,0.29278962662620467,-0.09125561221679672
1638754207801299700,6.0812998046875,0.0029886604219675063,-0.03330420781055,-0.14951574921207503
1638754207811262700,6.0912626953125,0.0847708715736866,-0.2301884830182418,-0.1366750636709854
1638754207821226800,6.101226806640625,-0.08488017716705798,-0.0022761465047486124,0.42179501418583093
1638754207831189800,6.111189697265625,-0.03248772662878036,0.20981002238346264,0.6935254313714801
1638754207841153000,6.121153076171875,-0.3445154482156038,0.18241216623960063,1.000428503420949
1638754207851116000,6.131115966796875,-0.7650216646999121,0.09597171748587861,0.7701027673564851
1638754207861079000,6.1410791015625,-1.0268547380536794,0.10568658089032396,0.6367415409412235
1638754207871043000,6.15104296875,-0.8170861984580755,0.2465177778600715,0.31900680335182696
1638754207881006000,6.161006103515625,0.05018704944849014,0.09734769114735535,-0.31594401824772356
1638754207890968800,6.17096875,0.031763504007458684,0.16934475927054882,-0.13121928248312323
1638754207900931800,6.180931884765625,-0.18989596439003945,0.1069604550173506,0.19812263506334274
1638754207910895900,6.190895751953125,-0.10377835438251495,-0.1617489886456169,-0.028752138563338664
1638754207920859000,6.20085888671875,0.054310266858339305,-0.2122135215949267,-0.07398878079652786
1638754207930822000,6.21082177734375,0.33554829790592194,-0.19127280570119617,0.05089033887963742
1638754207940785000,6.220784912109375,0.4870125325709581,-0.11023081845752894,0.07735467703305185
1638754207950748000,6.230747802734375,0.413926838093996,0.06850650432738475,-0.0029848062307573854
1638754207960712000,6.2407119140625,0.2848994761645794,0.0893969422054477,0.010631466792710124
1638754207970675000,6.250675048828125,0.22283728000521658,-0.04931102466578595,0.07885361035391687
1638754207980637700,6.2606376953125,0.02800093660354614,-0.13693761446415445,0.044554285992216315
1638754207990600700,6.2706005859375,-0.1286111823439598,-0.09422305632079951,-0.0325736878791824
1638754208000564700,6.280564697265625,-0.07100128941833972,-0.14188658777419477,-0.05302578000575304
1638754208010527700,6.29052783203125,-0.23544249455630778,-0.045412816217425274,-0.06528919538185
1638754208020491000,6.300490966796875,-0.27942016797065733,-0.05318127196156419,0.04000120753142983
1638754208030453200,6.310453369140625,-0.19094518118202686,-0.12292385742254555,0.01991411279235035
1638754208040416300,6.320416259765625,-0.08493687579035758,0.049848666073288764,-0.21316968980859963
1638754208050380300,6.33038037109375,-0.056144496548175805,0.2523141709128395,-0.09915953547544777
1638754208060343300,6.34034326171875,-0.13792846126556396,0.22188940469585358,0.0936550928402692
1638754208070306300,6.350306396484375,-0.1327507663667202,0.1254006136664655,0.1997196584638208
1638754208080269300,6.360269287109375,-0.23988369187414646,-0.1329969779464416,0.07994765266831964
1638754208090233300,6.3702333984375,-0.2057259862065315,-0.2624440813915804,-0.0010860051384195685
1638754208100196000,6.380196044921875,-0.03836450970768928,-0.15130111652519554,0.06363704426065087
1638754208110159000,6.3901591796875,0.08338438565135002,-0.08797296468378044,-0.003966857804358005
1638754208120122000,6.4001220703125,0.11143033044040203,-0.019332303449558094,-0.019122304827533663
1638754208130086100,6.410086181640625,0.02458323711454868,0.1657087043231353,0.010130677663721143
1638754208140049200,6.420049072265625,-0.06967208664119243,0.18343986531952394,-0.011351049771532416
1638754208150012200,6.43001220703125,-0.2814636564970016,0.0694848569734022,-0.0990037969244644
1638754208159975200,6.43997509765625,-0.3180634946197271,-0.17254797575864939,-0.13620675203949212
1638754208169938400,6.4499384765625,-0.057686465293169016,-0.25517116777915505,-0.02537314538322389
1638754208179902200,6.459902099609375,-0.2677928585410118,0.2578117636821233,0.20942929770387708
1638754208189865200,6.469865234375,-0.5859791027575731,0.6109425348287448,-0.13171817191597074
1638754208199828200,6.479828125,-0.41968963940441606,0.2237472344569862,-0.06018876697029918
1638754208209791200,6.489791259765625,-0.24465163692831993,0.11447333313180133,-0.060833859940804536
1638754208219755300,6.49975537109375,0.34063422286808487,-0.049872878065938125,-0.17225111170392482
1638754208229718300,6.50971826171875,0.7800561522245406,-0.29074619289878756,0.048890251103602345
1638754208239681300,6.519681396484375,0.8959083907604217,-0.3181054340653121,0.3281992137847468
1638754208249644300,6.529644287109375,0.4076256921231746,-0.07054887860887683,0.09594521307144313
1638754208259608300,6.5396083984375,0.37057752571105956,0.11562814745642244,0.12844492239896207
1638754208269571300,6.5495712890625,0.6115794079601764,0.34761023589316753,0.38826877482216804
1638754208279534000,6.5595341796875,0.46713937284350393,0.32202319203093643,0.18678196055535226
1638754208289497000,6.5694970703125,0.34767128189802166,-0.05457870853617787,-0.21336407986953854
1638754208299460000,6.579460205078125,-0.4461480227410793,-0.3388194285310805,-0.5924786208447068
1638754208309424000,6.589424072265625,-1.1544096893429756,-0.7406682908184826,-0.770932057787478
1638754208319387100,6.59938720703125,-1.2347463778614998,-0.7313897364720702,-0.28132399229798466
1638754208329350100,6.60935009765625,-0.433000371876359,-0.1966311178639531,0.4236149596219882
1638754208339313200,6.619313232421875,0.4180231674969196,-0.038788288077712056,0.335158093011938
1638754208349277200,6.629277099609375,0.2655155612587929,-0.26152207117583604,-0.050735623241961
1638754208359240200,6.639240234375,-0.12147358554899691,0.122841184107773,-0.060895892326347525
1638754208369203500,6.649203369140625,0.4294517394840717,-0.0879340665786527,0.14542919228449463
1638754208379166200,6.659166259765625,0.4697422488182783,-0.6631056701231748,0.013803959348984061
1638754208389130200,6.669130126953125,-0.9274772489786147,0.1817428338769823,-0.7312259242124856
1638754208399093200,6.67909326171875,-1.4115887994110583,2.1174736538790166,-0.46571566018331795
1638754208409056300,6.68905615234375,0.5881710598438978,1.1358663169145584,0.6629712300885469
1638754208419019300,6.699019287109375,0.049098085168004034,-0.4654334822410717,0.3786485674312338
1638754208428983300,6.7089833984375,-1.353179280540347,-0.3029104952819645,0.0595928103711456
1638754208438946300,6.7189462890625,-1.1166507443130016,0.024801017184229567,0.2982785611649975
1638754208448909300,6.728909423828125,-0.052560208320617675,-0.24600285060787572,0.011840221527963875
1638754208458872300,6.738872314453125,0.24304595529735087,-0.04465542654544115,-0.1403037755621597
1638754208468836400,6.74883642578125,0.431553095677495,0.47216567657291886,0.08873809470422565
1638754208478799000,6.758799072265625,0.7694535096675157,0.19670294099114835,0.39525333647988736
1638754208488762000,6.76876220703125,0.9724573774337768,0.09499116374962031,0.5287678172281012
1638754208498725000,6.77872509765625,0.6530453908145427,0.20384272974319756,0.39821087111122905
1638754208508688100,6.788688232421875,0.5917991872131824,-0.18759608994983135,0.31153493310119956
1638754208518652200,6.798652099609375,-0.03379997827112675,-0.6104082087563351,-0.17383100130651144
1638754208528615200,6.808615234375,-0.6329384223312139,-0.7067229857925326,-0.7017071303918957
1638754208538578200,6.818578125,-0.6007067162901163,-0.555796511266008,-0.7642968575567006
1638754208548541200,6.828541259765625,-0.14348025017380714,-0.19267357587721198,-0.46135140055920926
1638754208558505200,6.838505126953125,0.40233518449962136,-0.12852516629463062,0.11137290116474031
1638754208568468200,6.84846826171875,0.002393032616376877,-0.1746441077876836,0.09377207028344273
1638754208578431200,6.85843115234375,-0.39022739807665346,0.2317047328000888,-0.12034713880233466
1638754208588394200,6.868394287109375,0.1787257510781288,-0.34015476878806944,-0.1022104474786669
1638754208598358300,6.878358154296875,-0.022682956451177596,-0.638544571775198,-0.13976356773823498
1638754208608321300,6.8883212890625,-0.46435354151725766,-0.3064181015441194,-0.19352219206318258
1638754208618284300,6.8982841796875,-1.0519412485152482,0.7492537483341991,-0.43536585889868434
1638754208628247300,6.908247314453125,-1.1690279972821473,1.4113118821658193,-0.26629246391542255
1638754208638211300,6.91821142578125,-1.0704641626775264,1.7654881620436906,-0.17639423939064144
1638754208648174300,6.92817431640625,-0.4481827434390783,1.0223344841502606,0.19904731216020882
1638754208658137300,6.938137451171875,-0.04096095594167709,-0.33851613473556935,0.2755043827664107
1638754208668100000,6.94810009765625,-0.24620997228622435,-0.8258557803690433,0.2011758486215025
1638754208678063000,6.95806298828125,-0.1589975527793169,-0.7072673218023031,0.285309335607104
1638754208688027100,6.968027099609375,0.11190496221482753,-0.420784448903799,0.2484490199172869
1638754208697990100,6.977990234375,0.27739070796966553,-0.24536521029146388,0.12030779317263512
1638754208707953200,6.987953125,0.27360768229961396,-0.1211321699664928,-0.08899301931336522
1638754208717916200,6.997916259765625,-0.01593231314718723,0.12707361577944828,-0.4524430677646771
1638754208727880200,7.007880126953125,-0.2780570629239082,0.15606314329523593,-0.49305276258327063
1638754208737843200,7.01784326171875,0.6799462572216988,-0.3230555307533592,0.40959564048927277
1638754208747806200,7.02780615234375,1.6920523389548063,-0.30441989519791673,1.3650786849096417
1638754208757769200,7.037769287109375,1.3699708408653735,0.22240736415535212,1.6331671653963624
1638754208767733200,7.047733154296875,0.3105062111079693,0.37322928232885894,0.9141841252285987
1638754208777696300,7.0576962890625,-0.8154208955943584,0.2948385037137195,0.017010463772714136
1638754208787659300,7.0676591796875,-1.4546201318860053,0.18122049050331115,-0.5359718668553978
1638754208797622300,7.077622314453125,-1.1356447831183671,-0.1748561431031674,-0.8182103801824152
1638754208807586300,7.08758642578125,0.43842473501265045,-0.2569540508742444,-1.3294305945537983
1638754208817549300,7.09754931640625,1.5927794792979955,0.03126536349328234,-1.5019634823411703
1638754208827512300,7.10751220703125,1.7861621167600155,0.07550984375081024,-0.6083400607127696
1638754208837475300,7.117475341796875,1.4494880296945571,-0.03223928655935451,0.46030368160456414
1638754208847439400,7.127439453125,0.6135299575060605,-0.252395108928252,0.7764271480724215
1638754208857402400,7.13740234375,-0.48741643719673156,-0.3326439547665417,0.6516431958664208
1638754208867365000,7.147365234375,-1.2689379857987164,-0.11516822919393889,0.397095238019526
1638754208877328100,7.157328125,-1.4198054236143827,0.19942564395330845,0.03455598427020013
1638754208887292200,7.167292236328125,-1.0088438650667666,0.30023756801197304,-0.2967436432152986
1638754208897255200,7.177255126953125,-0.2816553796768188,0.0862595666283276,-0.36472032411545513
1638754208907218200,7.18721826171875,0.32234979363679883,-0.11151970749059692,-0.22852051327340303
1638754208917181200,7.19718115234375,0.6396668538033962,0.04654324958603829,-0.2412283114161342
1638754208927145200,7.207145263671875,0.5879284832596778,0.08733139711092226,-0.12554258855357767
1638754208937108200,7.217108154296875,0.23694763842225072,0.2257203063619323,-0.2764784154303372
1638754208947071200,7.2270712890625,0.06616203269362449,0.34274785402119157,-0.11839008645042777
1638754208957034000,7.237033935546875,-0.1251291854470968,0.48221243881285186,0.13439480724669992
1638754208966998300,7.246998291015625,-0.5055950679659843,0.6574419452730565,0.3476587512100115
1638754208976961000,7.2569609375,-0.7945832747489213,1.0179294541243462,0.35758133908100426
1638754208986924300,7.26692431640625,-0.9579565583944321,0.9351933032486587,0.2934172752715647
1638754208996887300,7.27688720703125,-0.7389309456318617,0.6736413118585943,0.37729675096347925
1638754209006851000,7.28685107421875,-0.1682826829969883,0.7956826142929494,0.45764315715841947
1638754209016814300,7.296814453125,0.3888105170160532,1.07129169954285,0.5233624145206064
1638754209026777300,7.30677734375,0.6513742427319288,1.5151358292557298,0.43527357750535006
1638754209036741000,7.3167412109375,0.5859264957875013,1.2784468417696655,0.5244476524740457
1638754209046705000,7.326704833984375,0.17887071250677108,0.8789027492932975,0.9898996567524969
1638754209056668200,7.336668212890625,-0.12651216423809528,0.499696657577157,1.1047086698457598
1638754209066631200,7.346631103515625,-0.22681202885508536,0.21993757650833576,1.0002014166668056
1638754209076594200,7.35659423828125,-0.09380348833501338,-0.08852364823594688,0.8226984853819013
1638754209086558200,7.36655810546875,0.20735680227875708,-0.36020069126654414,0.668314710008353
1638754209096521200,7.376521240234375,0.4472907630354166,-0.9928408978361636,0.906737097158283
1638754209106484200,7.386484130859375,0.612143471583724,-1.8107191965200007,0.8350016482464969
1638754209116447200,7.396447265625,0.7034796930223703,-2.372283258336782,-0.2215392030186951
1638754209126411300,7.406411376953125,0.5825035356014967,-2.761677128198743,-1.6735393616646528
1638754209136374000,7.4163740234375,0.3669891458302736,-2.631750771602988,-2.5635072564601895
1638754209146337000,7.4263369140625,0.043348143339157104,-1.762430820299685,-1.6813944590792058
1638754209156300000,7.436300048828125,-0.21671675129830836,-0.4366537798173725,-0.05095598799437284
1638754209166264000,7.44626416015625,-0.6399123529970645,0.593460142695345,0.3853538006909191
1638754209176227000,7.45622705078125,-1.421692260274291,0.8660182794094086,0.3464128062695265
1638754209186190000,7.466190185546875,-1.9543600440829991,0.608220964377746,-0.10569003322273492
1638754209196153000,7.476153076171875,-1.6167869623512028,0.24262232305780052,-0.5082467515185475
1638754209206117000,7.4861171875,-0.617014877012372,0.10110475125908851,-0.324327377320081
1638754209216080100,7.496080078125,0.2516144616782665,0.001686857108399272,-0.20983473669961095
1638754209226043000,7.50604296875,0.6571820522278546,-0.2839821421239525,-0.12437325251325965
1638754209236006100,7.516006103515625,0.695507398968935,-0.5382249064791947,0.002272767237573862
1638754209245970000,7.525969970703125,0.5246335304349661,-0.6157816088903695,0.11817074461132288
1638754209255933000,7.535932861328125,0.29076456880569457,-0.5256534480672329,0.21530440028235315
1638754209265896200,7.545896240234375,0.07999357416927814,-0.27493915009908376,0.10332798026651144
1638754209275859200,7.555859130859375,-0.03893617211580276,0.01167202535420656,-0.0968650678627193
1638754209285823200,7.5658232421875,-0.08640344121158122,0.11933387010656296,-0.09304097952991723
1638754209295786200,7.5757861328125,-0.04614274249374866,0.07814334319271146,0.061979194051027295
1638754209305749200,7.585749267578125,0.09569090951681136,0.004285714495182037,0.1677175964601338
1638754209315712300,7.595712158203125,0.26042203751206394,0.007449439223110675,0.12918167570829392
1638754209325676300,7.60567626953125,0.3455149806469679,0.12364274628162383,-0.05674816152974963
1638754209335639000,7.61563916015625,0.3436562010377645,0.21825506678149104,-0.31351854466646906
1638754209345602000,7.62560205078125,0.1860632543593645,0.2085578486315906,-0.410192181610316
1638754209355565000,7.63556494140625,0.015357143607735633,0.19058986493833363,-0.35243966534361243
1638754209365529000,7.645529052734375,-0.08287000638842582,0.15037928897254169,-0.2513517190888524
1638754209375492000,7.6554921875,-0.16550912663042544,0.06918335327617824,-0.17191563267186283
1638754209385455000,7.665455078125,-0.2132300782263279,-0.019721403231844306,-0.004889963998645544
1638754209395418000,7.675418212890625,-0.17008885563611983,-0.10884235977381468,0.17194763524532317
1638754209405382100,7.685382080078125,-0.03091711631119251,-0.16042027905881404,0.35254984771981834
1638754209415345200,7.69534521484375,0.1264841071873903,-0.2871149602569639,0.5742356196023524
1638754209425308000,7.705307861328125,0.2457417702525854,-0.410263566346094,0.7433947931729257
1638754209435272000,7.71527197265625,0.31801381025910375,-0.07647102606631814,0.6046333882145584
1638754209445235000,7.72523486328125,0.42469723843336105,0.48705111101567744,0.14179390452206134
1638754209455198000,7.735197998046875,0.410551224181056,0.7469886529464275,-0.5910230882741511
1638754209465161000,7.745160888671875,-0.18766718242466449,0.6711492758471518,-0.6940829191237687
1638754209475125000,7.755125,-1.0627794533938169,0.26858583554960785,-0.04377908210232854
1638754209485088000,7.765087890625,-1.6410516350358724,-0.27840982188433405,0.45396994853839273
1638754209495051300,7.77505126953125,-1.2598954321652651,-0.3840156108897179,0.15692206167951225
1638754209505014300,7.78501416015625,-0.33471769230067727,-0.05370528670251369,-0.3111319417908788
1638754209514978000,7.79497802734375,0.33677988552749155,0.12222440391629934,-0.3939589858204126
1638754209524941300,7.80494140625,0.6634510494947433,-0.001419219148159027,-0.34389468596875666
1638754209534904000,7.814904052734375,0.7215712300300597,-0.18960370344519614,-0.23137626803070305
1638754209544867000,7.8248671875,0.4695020103216171,-0.25046141918562354,-0.011675824746489524
1638754209554831000,7.8348310546875,0.012992168042063712,-0.14729922394007444,0.13221183718442917
1638754209564794000,7.844794189453125,-0.39181963570415973,0.003876256911456585,0.0881780496686697
1638754209574757000,7.854757080078125,-0.5200988096147775,0.10482216434702277,-0.012069354108721017
1638754209584720100,7.86472021484375,-0.2709329101324081,0.11139788947552443,-0.04753785011395812
1638754209594684200,7.87468408203125,0.13891279612779617,0.033264117828756566,0.02086801598370075
1638754209604647200,7.884647216796875,0.35211540182530876,-0.09290127879828214,0.08014628051295876
1638754209614610200,7.894610107421875,0.33889643929004665,-0.1678231757264584,0.06652078300341964
1638754209624573000,7.904572998046875,0.15806465584337712,-0.09518442129939794,0.03604892624169588
1638754209634537000,7.914536865234375,-0.08245441132485866,0.03899805837087333,-0.011615472861379384
1638754209644500000,7.9245,-0.2542261054813862,0.09374510921128093,-0.025571809760481116
1638754209654463000,7.934462890625,-0.3114461223065853,0.016064634289965032,0.02036021259203553
1638754209664426000,7.944426025390625,-0.1839759266912937,-0.07553579104281961,0.05242810637354851
1638754209674390000,7.95439013671875,0.027695231655240057,-0.11963058803081512,0.033912644865363835
1638754209684353000,7.96435302734375,0.1203852057904005,-0.12163564424291252,-0.007947159612178801
1638754209694316000,7.97431591796875,0.023102058646082876,-0.09659954879432917,-0.07723463084995746
1638754209704279300,7.984279296875,-0.11677870573103427,-0.0405059787157923,-0.11247677075341343
1638754209714243000,7.9942431640625,-0.18970774834156034,-0.005364011251181364,-0.07467895501777529
1638754209724206300,8.004206298828125,-0.1847515872389078,0.006761530024185777,-0.0596663870640099
1638754209734169000,8.014169189453124,-0.17118074252605436,-0.011346300531178712,-0.07448708570748568
1638754209744133000,8.024133056640625,-0.14751345121264456,-0.03545329843610525,-0.09591492753103374
1638754209754096000,8.03409619140625,-0.11226152056753634,-0.04133526914678514,-0.1283851185031235
1638754209764059100,8.04405908203125,-0.12533727523982524,-0.028961013807356356,-0.13792626930847762
1638754209774022100,8.054022216796875,-0.16302900025248526,0.004264890902861952,-0.09724705291762947
1638754209783986200,8.063986083984375,-0.12050970895290374,0.04066694143116474,-0.031142011108249424
1638754209793949200,8.07394921875,0.00862169787287712,0.026752324781939386,0.0003524666994810104
1638754209803912200,8.083912109375,0.10802549043297767,-0.006606631723418832,-0.03882335939109325
1638754209813875200,8.093875244140625,0.1184942774772644,-0.05042626503184437,-0.10932502872422337
1638754209823839200,8.103839111328124,0.004861468556523323,-0.03018105712160468,-0.16754574702456593
1638754209833802000,8.113802001953125,-0.17074702728390692,0.04793590952083468,-0.1375351510990411
1638754209843765000,8.123764892578125,-0.24865502735078332,0.09534348431862891,-0.0508308272447437
1638754209853728000,8.13372802734375,-0.18492460571825503,0.13871106301061809,0.056761678598448634
1638754209863692000,8.143692138671875,-0.03391805169284343,0.1801102642390877,0.19024148989208042
1638754209873655000,8.153655029296875,0.19175240591168402,0.19854133539944885,0.2168757412523031
1638754209883618000,8.1636181640625,0.3571867137402296,0.18433613830581305,0.18253157310187815
1638754209893581000,8.1735810546875,0.3839414496749639,0.14173479474596679,0.20092523486129937
1638754209903545000,8.183545166015625,0.276475931212306,0.07460450154207647,0.20607604175321756
1638754209913508000,8.193508056640624,0.12191840670704841,-0.001699643524736166,0.18724077370613812
1638754209923471000,8.20347119140625,-0.014110942938923834,-0.05192373704798519,0.1423876326315105
1638754209933435100,8.21343505859375,-0.09639993456900119,-0.10608020158410071,0.033029505355283616
1638754209943398000,8.22339794921875,-0.14053776698112486,-0.1585271587885916,-0.10472688727900385
1638754209953361200,8.233361083984375,-0.14094810134768485,-0.23188677483610806,-0.19821137279272077
1638754209963324200,8.24332421875,-0.08886661645472049,-0.28934673789702353,-0.2105178235929459
1638754209973288000,8.253287841796874,-0.01772796439230442,-0.2632397983465344,-0.07657280594035983
1638754209983251200,8.263251220703125,0.07003390569090842,-0.1291398823931813,0.0975422364719212
1638754209993214200,8.273214111328125,0.19385843828022478,0.11176372711323201,0.188518538556993
1638754210003177200,8.28317724609375,0.17421090400218964,0.21129984081611036,0.26240473576188084
1638754210013141200,8.293141357421876,0.19830898794829843,0.0702915337137878,0.06056348203420639
1638754210023104300,8.303104248046875,0.27349077792167664,0.05704926336817443,0.07725830398648977
1638754210033066000,8.31306591796875,0.15383973162472248,0.0842058581020683,0.16552914650514722
1638754210043029000,8.323029052734375,0.012353285616636275,-0.030075112529098984,0.00907163359746337
1638754210052993000,8.332992919921875,-0.16049159072935582,-0.17567388922683894,-0.020162351932376622
1638754210062956000,8.3429560546875,-0.2536462597668171,-0.23759514254555106,-0.038273324292898175
1638754210072919000,8.3529189453125,-0.2100572934091091,-0.21039690062701702,-0.07519289588928223
1638754210082883000,8.362883056640625,-0.09672317517399788,-0.19351802734471857,-0.04996478499993682
1638754210092846000,8.37284619140625,-0.013300211077928543,-0.2359463524252176,-0.01349441847577691
1638754210102809000,8.38280908203125,-0.010595628294348717,-0.2892642472453415,0.02318330718874931
1638754210112772000,8.392772216796875,-0.05969722059369087,-0.2927019666090607,0.01710033401325345
1638754210122735900,8.40273583984375,-0.12870061419308185,-0.23819990350566803,-0.020749504170566795
1638754210132699100,8.41269921875,-0.23574469237327575,-0.19140819558389482,-0.06409560168311
1638754210142662100,8.422662109375,-0.30309155093729495,-0.15025639324523507,-0.14132131857424973
1638754210152625200,8.432625244140626,-0.3170832514107227,-0.11504442928433417,-0.1947454502478242
1638754210162589200,8.442589111328125,-0.3213303874611854,-0.1004275826498866,-0.2460780164696276
1638754210172552200,8.45255224609375,-0.2866372597426176,-0.09870938055515288,-0.29854075576514005
1638754210182515200,8.46251513671875,-0.2459206339508295,-0.09145129918567836,-0.30543416854068633
1638754210192479200,8.472479248046875,-0.1960883892893791,-0.08555142749212681,-0.3039464142009616
1638754210202442200,8.482442138671875,-0.15437749176323412,-0.05447751318402588,-0.32287527881562705
1638754210212405200,8.4924052734375,-0.16057576188147066,0.0024525807838886977,-0.3197634304054081
1638754210222368000,8.502367919921875,-0.17918226267397402,0.08534516433030366,-0.32287089490145443
1638754210232332000,8.51233203125,-0.1870218702584505,0.17874763411637395,-0.28783099957183
1638754210242295000,8.522294921875,-0.17722352982163428,0.2303633646611124,-0.22239465080425141
1638754210252258000,8.532258056640625,-0.1390291159838438,0.24880532254166898,-0.122400345005095
1638754210262221000,8.542220947265625,-0.070588616964221,0.2394059913598001,-0.00369563964754343
1638754210272185000,8.55218505859375,0.06672901892662048,0.23017463715597986,0.0900838832899928
1638754210282148000,8.562148193359375,0.14892097992300987,0.16521061860788613,0.10682612458057701
1638754210292111000,8.572111083984375,0.13148118482232093,0.08798804352190345,0.0966018138166517
1638754210302075100,8.5820751953125,0.07575403690338134,0.051966224482841786,0.09781951904334127
1638754210312038100,8.5920380859375,0.027585926061868667,0.020785598397254943,0.1351588504217565
1638754210322001000,8.6020009765625,0.051321021914482116,0.006223368026874959,0.17883922138996422
1638754210331964000,8.6119638671875,0.10554887118637561,0.030301541696116326,0.2332594514288008
1638754210341928000,8.621927978515625,0.14197569082975386,0.10594999933317303,0.24780257523991167
1638754210351891000,8.631890869140625,0.16326339353024957,0.1999127333505079,0.2485009327676147
1638754210361854000,8.64185400390625,0.1769447128802538,0.26244046466238796,0.2572690533738583
1638754210371817200,8.651817138671875,0.21373510513901708,0.2521380106283352,0.2567828772921115
1638754210381781000,8.661781005859375,0.25407822144329545,0.1926223936792463,0.22609343225695192
1638754210391744300,8.671744140625,0.24369652816057205,0.11667553761750458,0.16971841488853096
1638754210401707300,8.681707275390625,0.16627601934969424,0.05875292548090219,0.11093567879125475
1638754210411671000,8.691671142578125,0.0507552047252655,0.043066732581891115,0.08769844945818185
1638754210421634300,8.70163427734375,-0.01386544374525547,0.04219122838899493,0.08631064836159348
1638754210431597000,8.71159716796875,0.01809387509524822,0.04878616967462003,0.10624569434411824
1638754210441560000,8.72156005859375,0.12015081251263618,0.0590662292137742,0.09917655967548489
1638754210451524000,8.731524169921874,0.2346785244464874,0.033647929514572024,0.05261924503147602
1638754210461487000,8.741487060546875,0.31752573448121546,-0.004914879244193434,0.03107669078707695
1638754210471450000,8.7514501953125,0.3088268797188997,-0.050264790859818456,-0.008903583554178475
1638754210481414100,8.7614140625,0.24062545015215872,-0.1025460361085832,-0.0075644439049065105
1638754210491377200,8.771377197265625,0.16739654781222343,-0.13828494655303655,0.0040562896534800524
1638754210501340200,8.781340087890625,0.06900164003372192,-0.1293421269670129,-0.003687456341087818
1638754210511303200,8.79130322265625,-0.16592179908454419,-0.09711560855768621,-0.12289675021991132
1638754210521267200,8.80126708984375,-0.5057715935766697,-0.048821167922765016,-0.21278701063394545
1638754210531230200,8.811230224609375,-0.6931582054942846,0.02105520911887288,0.01793839227259159
1638754210541193000,8.82119287109375,-0.5226414798349142,0.06766250038444996,0.30194033507555723
1638754210551156000,8.831156005859375,-0.06696282768249512,-0.0009323124140501022,0.29456907565519214
1638754210561120000,8.8411201171875,0.3280196559667587,-0.11937339839935301,0.20483312902003525
1638754210571083000,8.8510830078125,0.4495809197992086,-0.18753676097802816,0.10992562496587634
1638754210581046000,8.8610458984375,0.31447569926083085,-0.21976890541054306,-0.0654383945941925
1638754210591010000,8.871010009765625,-0.06579086129367351,-0.2596615014683455,-0.33513255671188236
1638754210600973000,8.88097314453125,-0.5404530308574438,-0.30812121566757555,-0.4655126484245062
1638754210610936000,8.89093603515625,-0.8763198931932449,-0.36743681653253735,-0.4890403851367533
1638754210620899300,8.9008994140625,-0.942939606526494,-0.3728253777030855,-0.4785092003807425
1638754210630863000,8.910863037109374,-0.7508470088750123,-0.3411054936416447,-0.5512836369514466
1638754210640826000,8.920826171875,-0.5059603941470384,-0.30620237643420695,-0.6156530871398747
1638754210650789000,8.9307890625,-0.3276122442096472,-0.26035167568959294,-0.5493292880132794
1638754210660752100,8.940752197265626,-0.27773323779702186,-0.2042946382291615,-0.42145957168638704
1638754210670716200,8.950716064453125,-0.30354046374857424,-0.16868644149228929,-0.2863634112372994
1638754210680679200,8.96067919921875,-0.29307050766050813,-0.10902166186347603,-0.12431070867106318
1638754210690642200,8.97064208984375,-0.14459844054877757,-0.04725632975883782,0.03841799346059561
1638754210700606200,8.980606201171875,0.07444061621725559,-0.03414404246844351,0.11108429348170756
1638754210710569200,8.9905693359375,0.2020803231805563,-0.0916980404883623,0.1396300044864416
1638754210720532200,9.0005322265625,0.19232231475412845,-0.18469050470143555,0.21511355388537048
1638754210730495000,9.010494873046875,0.17500526925027368,-0.2719312735199928,0.317285057593137
1638754210740459300,9.020459228515625,0.24590192925035953,-0.3145757986344397,0.38255759410113094
1638754210750422000,9.030422119140624,0.3891004398733377,-0.28761238838508724,0.4231193215921521
1638754210760385000,9.040385009765625,0.5117728798180818,-0.15637604516930878,0.3873227626763284
1638754210770349000,9.05034912109375,0.4978448922306299,0.03761851364597678,0.22224223672151563
1638754210780312000,9.06031201171875,0.37417175081074233,0.25111506078876555,0.06820566735044122
1638754210790275000,9.070275146484375,0.19763737229704856,0.49502661993950603,-0.0272695535890758
1638754210800238000,9.080238037109375,0.1004255368232727,0.7478256152272224,-0.14446268533989787
1638754210810202000,9.0902021484375,0.11961188333034514,0.8565838038489222,-0.16524360756203532
1638754210820165000,9.1001650390625,0.12292612244486809,0.7091857226442545,-0.048512540365010494
1638754210830128000,9.110128173828125,0.040756957802176474,0.537365147844702,0.06363602134734392
1638754210840092200,9.120092041015624,0.032470190972089766,0.4265032649420202,0.11208309526070952
1638754210850055000,9.130054931640625,0.06167524266839027,0.296471694406122,0.14600874573811887
1638754210860018000,9.140017822265625,0.04811316578388214,0.1112721442040056,0.13141995615437627
1638754210869981000,9.14998095703125,-0.02221124728620052,-0.03724756144173443,0.10170227876082062
1638754210879945000,9.159945068359375,-0.11723287923932074,-0.09844020822495221,0.1069657522469759
1638754210889908000,9.169907958984375,-0.2199082408159971,-0.11448336133547127,0.14438245971053837
1638754210899871200,9.179871337890624,-0.3143564567953348,-0.15245236891955136,0.13219473991915584
1638754210909835000,9.1898349609375,-0.42640930304825303,-0.1963078041937202,0.008715513636171818
1638754210919798000,9.199798095703125,-0.549048425245285,-0.21453253912702203,-0.14253171727731823
1638754210929761300,9.20976123046875,-0.6230377905637026,-0.2366515780851245,-0.21900793097540736
1638754210939724300,9.219724365234375,-0.532953615012765,-0.27530221125781534,-0.2648825240522623
1638754210949688300,9.229688232421875,-0.27386779454052446,-0.26817199405170977,-0.24268588981330394
1638754210959651000,9.239651123046874,-0.025887889972329138,-0.2301864006590098,-0.16844123455956578
1638754210969614000,9.249614013671875,0.09855915842950344,-0.244753562932834,-0.20584449801966548
1638754210979578000,9.259578125,0.05527297441065311,-0.2861060024101287,-0.2272976204149425
1638754210989541000,9.269541015625,-0.02314414422214031,-0.2559264796584844,-0.16262538788765668
1638754210999504100,9.279504150390625,-0.047323476710915566,-0.15405205920115111,-0.16284443746581673
1638754211009467100,9.289467041015625,-0.046747722649574275,-0.06465740028433502,-0.15869506270140407
1638754211019431200,9.29943115234375,-0.042599955320358276,-0.006463789186626673,-0.11740969711095094
1638754211029394200,9.309394287109376,0.026453122639656067,0.020881752248108384,-0.12883037805259226
1638754211039357200,9.319357177734375,0.07681143700182437,0.020445114396512507,-0.10728694702535867
1638754211049321200,9.3293212890625,0.062174424362182616,0.019818433865532278,-0.07183160276263952
1638754211059284200,9.3392841796875,0.036572365593910215,0.05734598129242658,-0.08368044598847627
1638754211069247200,9.349247314453125,0.041835985210537906,0.10767316986396908,-0.0603232435375452
1638754211079210000,9.3592099609375,0.07680909891426563,0.17367307079844177,-0.026300270165503025
1638754211089174000,9.369174072265626,0.09228431594371796,0.19925459823533892,0.013711714488267898
1638754211099137000,9.379136962890625,0.057499418288469314,0.18710735658481717,0.08988397680372
1638754211109100000,9.38910009765625,-0.017288403931260108,0.15549977379143237,0.16829130469486117
1638754211119064000,9.39906396484375,-0.07470540463328361,0.09259024008773267,0.19576397964060305
1638754211129027000,9.409027099609375,-0.06870762552320957,0.03141819770112633,0.16514876888543367
1638754211138990000,9.418989990234374,0.0184913499802351,-0.002849251951277256,0.12083879477679729
1638754211148953000,9.428953125,0.08575754452347754,-0.03082651541829109,0.1024663950011134
1638754211158917000,9.438917236328125,0.11339490851163864,-0.07810936785787344,0.10427855898961425
1638754211168880000,9.448880126953124,0.07044482457935809,-0.12207440098635852,0.08402765199095011
1638754211178843100,9.458843017578126,-0.03918167130947113,-0.13574782929085194,0.034492344449460505
1638754211188807200,9.46880712890625,-0.14142916286289692,-0.11527575382217764,-0.02706599384099245
1638754211198770000,9.47877001953125,-0.18374737863242624,-0.07638648958802223,-0.07403773450478911
1638754211208733200,9.488733154296876,-0.14920856469273566,-0.060003729259595275,-0.06647811290547251
1638754211218697000,9.498697021484375,-0.07118892094492912,-0.053248702041432255,-0.046098903352022165
1638754211228660200,9.50866015625,-0.009264087429642676,-0.03374408336542547,-0.045131519624590874
1638754211238623200,9.518623291015626,-0.03352992915809154,-0.01001191012226045,-0.05437982496321201
1638754211248586200,9.528586181640625,-0.09247720816731453,0.005116173969954252,-0.027856267435848712
1638754211258550300,9.53855029296875,-0.1288064126551151,-0.008568944772332906,-0.05066533448472619
1638754211268513300,9.54851318359375,-0.16688158402740955,-0.05263422340489923,-0.1327859838105738
1638754211278476300,9.558476318359375,-0.1898451109856367,-0.08277078379765153,-0.1933272540129721
1638754211288440300,9.5684404296875,-0.17053309227228164,-0.08957067307084798,-0.2096604030460119
1638754211298403000,9.578403076171876,-0.13833762658834456,-0.06950798212066292,-0.1828086364775896
1638754211308366000,9.588365966796875,-0.10989479143619536,-0.05218889079019427,-0.13178425942212343
1638754211318329000,9.5983291015625,-0.08903145162761211,-0.032244419392198326,-0.1057958316847682
1638754211328293000,9.608293212890626,-0.08702946415543555,0.0049812955439090725,-0.11625862737968563
1638754211338256100,9.618256103515625,-0.07848667673766613,0.017120280822739004,-0.10429492560252547
1638754211348219100,9.62821923828125,-0.08439385495483875,0.022330562816932797,-0.07315612936466932
1638754211358183200,9.63818310546875,-0.0612602321267128,0.006268485810235143,-0.02524272393658757
1638754211368146200,9.648146240234375,0.011590484550595283,-0.019641542928665875,-0.006028320378810167
1638754211378109200,9.658109130859375,0.053961891812086105,-0.013277999246120453,-0.04223199879080057
1638754211388072200,9.668072265625,0.030532500907778738,0.00913746537528932,-0.12164528885409236
1638754211398036200,9.6780361328125,-0.09167699770033359,0.01925656219907105,-0.13907996938824652
1638754211407999000,9.6879990234375,-0.20793664799332617,0.04488309782147407,-0.1057465857155621
1638754211417962000,9.6979619140625,-0.2240998472869396,0.06102730015367269,-0.03087152360379696
1638754211427926000,9.707926025390625,-0.10939853235185146,0.06369768840670585,0.055694268562644714
1638754211437889000,9.717888916015625,0.05966799449920654,0.06649579469263553,0.11498495418205856
1638754211447852000,9.72785205078125,0.19597849917411803,0.08825900595039128,0.1305007954828441
1638754211457816000,9.737816162109375,0.23207857108116148,0.07732428189478814,0.13863916681818664
1638754211467779000,9.747779052734375,0.1365413908213377,0.06472184382267296,0.14417225102595985
1638754211477742000,9.7577421875,0.023978256958723066,0.04072838929481804,0.15413257709145545
1638754211487705300,9.767705322265625,-0.014497311908006667,0.003916442791372537,0.14628610137477516
1638754211497669000,9.777669189453125,-0.009291559958457946,-0.033374884726852176,0.09788608147352933
1638754211507632000,9.787632080078126,-0.0013666121780872343,-0.06891008929274976,0.033712007726728915
1638754211517595100,9.79759521484375,-0.008319500055909156,-0.10368468474969267,-0.018132964996621013
1638754211527559200,9.80755908203125,-0.022025953847169873,-0.11952727378681301,-0.037597616988420485
1638754211537522200,9.817522216796876,-0.0023228899896144866,-0.1428426829226315,-0.03763707221597433
1638754211547485200,9.827485107421875,0.062439797300100325,-0.15885478330776096,-0.027114655288308857
1638754211557448200,9.8374482421875,0.126240361559391,-0.14408311143778263,0.013211656011641025
1638754211567412200,9.847412109375,0.16820669515132902,-0.0825052647292614,0.0474209457360208
1638754211577375200,9.857375244140625,0.16223171239495277,0.004301642716675997,0.09050459292009472
1638754211587338200,9.867338134765625,0.11586392897367477,0.06308072555214166,0.10420863555856048
1638754211597302300,9.87730224609375,0.09412146824300288,0.07239961190894245,0.08217471760064363
1638754211607265300,9.887265380859375,0.049933951470255845,0.05320033285506069,0.03451338723748922
1638754211617228000,9.89722802734375,0.04724222816824913,-0.0078072396848350755,-0.04178447421900928
1638754211627192000,9.907192138671874,0.12817337544858454,-0.06820011439248919,-0.08803323437049984
1638754211637155000,9.917155029296875,0.18040040629208087,-0.07360343474075198,-0.06103928285241127
1638754211647118000,9.9271181640625,0.06090893447101116,-0.010952332777529954,-0.021583616907149553
1638754211657082000,9.93708203125,-0.21261282311081886,0.07304850427173078,0.027770342718064785
1638754211667045000,9.947045166015625,-0.3687491412401199,0.13392214823365212,0.11323781825378537
1638754211677008100,9.957008056640625,-0.16691022560000418,0.17024090439267456,0.1861125003285706
1638754211686971100,9.96697119140625,0.2578630006790161,0.15762538764327763,0.2074535406515002
1638754211696935200,9.97693505859375,0.5230214190632104,0.07457403333857655,0.20960867285877466
1638754211706898200,9.986898193359375,0.45185880160331726,-0.047172596998140214,0.11016074889600276
1638754211716861200,9.996861083984374,0.0707370855242014,-0.1316220545977354,-0.07176920505091547
1638754211726825200,10.0068251953125,-0.4362485600173473,-0.16414543706178664,-0.19622312158495187
1638754211736788000,10.0167880859375,-0.774941585689783,-0.17094897959679364,-0.19313523857221007
1638754211746751000,10.0267509765625,-0.7929360920637846,-0.19379750187322498,-0.1651725881524384
1638754211756714000,10.0367138671875,-0.5380956540763377,-0.2495966921150684,-0.09854951381832361
1638754211766678000,10.046677978515625,-0.14051789323687552,-0.3496946044191718,-0.03540609829351306
1638754211776641000,10.05664111328125,0.19307517894804477,-0.41892464638128873,-0.11242664800137281
1638754211786604300,10.066604248046875,0.22232991500496863,-0.3907650120846927,-0.1943878689818084
1638754211796568000,10.076568115234375,-0.1131874032407999,-0.2843938647300005,-0.24247911519482732
1638754211806531000,10.086531005859374,-0.5120061040520668,-0.1915206429824233,-0.22939152395427226
1638754211816494300,10.096494384765625,-0.6664888097554444,-0.12455701158232986,-0.14544672794118524
1638754211826458000,10.1064580078125,-0.5571896461248398,-0.11654635827988385,-0.11523220694139599
1638754211836421400,10.11642138671875,-0.2964461215734482,-0.13518296194970608,-0.18106909933388232
1638754211846384000,10.126384033203125,-0.07439443898797035,-0.1566354998230934,-0.29413740623965856
1638754211856347100,10.13634716796875,-0.004883680388331413,-0.14884455368593336,-0.37191491179466246
1638754211866311200,10.146311279296874,-0.07515081031322479,-0.11949505201764404,-0.35970907182469963
1638754211876274200,10.156274169921875,-0.17308569936454296,-0.04906389063745737,-0.3157402393039316
1638754211886237200,10.1662373046875,-0.20061258871555326,0.051819546021148556,-0.24441154456213116
1638754211896201200,10.176201171875,-0.1571498790860176,0.18430567010231316,-0.18010580725967884
1638754211906164200,10.186164306640626,-0.04142272823452949,0.30844580797944215,-0.1404536688942462
1638754211916127200,10.196127197265625,0.10523381388783454,0.38153972229547795,-0.06822707546465098
1638754211926091300,10.20609130859375,0.22823241704702377,0.4235986295416951,-0.016694383560866118
1638754211936054300,10.21605419921875,0.32322540742754935,0.42045192901380357,0.031341040811687704
1638754211946017000,10.22601708984375,0.3674818977832794,0.39917971614338454,0.13537570804283022
1638754211955981300,10.235981201171874,0.3313683818727732,0.3302914368236437,0.23903642739504574
1638754211965944000,10.245944091796876,0.23676059141755101,0.20372969782277942,0.3543373887237161
1638754211975907000,10.255906982421875,0.17633271846175191,0.050533561331219966,0.4299669955298304
1638754211985870000,10.2658701171875,0.15523498537540434,-0.03827511439118534,0.4577364614650607
1638754211995834000,10.275834228515626,0.1627875927120447,-0.06555822158157826,0.3960146031759679
1638754212005797000,10.285797119140625,0.17971593115925788,-0.04137454171124846,0.2716002879999578
1638754212015760100,10.295760009765624,0.16522037281692026,-0.030877332290075717,0.14359430500753223
1638754212025724200,10.30572412109375,0.10238719228506088,-0.04790650076325983,0.04889883626885712
1638754212035687200,10.315687255859375,-0.016966916891932485,-0.07042359912823885,0.00011215513758361339
1638754212045650000,10.32564990234375,-0.14685644860863684,-0.08819920205455273,-0.023994039049744606
1638754212055614000,10.335614013671876,-0.2002799957603216,-0.07719893848206848,-0.04856675477027893
1638754212065577000,10.345576904296875,-0.19062720127403734,-0.04971278300024569,-0.07109795472584664
1638754212075540000,10.3555400390625,-0.13775778087377546,-0.028067645164206623,-0.09443762152008711
1638754212085504000,10.36550390625,-0.05379471855163574,-0.04250065966434777,-0.0999454982213676
1638754212095467000,10.375467041015625,0.004514847075939178,-0.08223477722480893,-0.07614742013514042
1638754212105430000,10.385429931640624,0.034651626664400095,-0.11034699218310415,-0.04859298519007861
1638754212115393300,10.395393310546876,0.0685404522627592,-0.09734313370324671,-0.02589446584358811
1638754212125357000,10.405357177734375,0.11185060167908668,-0.043423473597690464,0.029530630388855932
1638754212135320000,10.415320068359375,0.14942776040136813,0.04388944714162499,0.08977927432022988
1638754212145283000,10.425282958984376,0.1976449710816145,0.1147779238352552,0.035931218146160245
1638754212155247000,10.4352470703125,0.18203414497375486,0.16868589350301771,-0.060915802603214976
1638754212165210000,10.445210205078125,0.11653086844980716,0.1657971497915685,-0.050842736878246066
1638754212175173000,10.455173095703126,0.07565233009457588,0.14760375984460114,0.02707147373370826
1638754212185137200,10.46513720703125,0.017812720066308973,0.14682890301458537,0.09740984226390718
1638754212195100200,10.47510009765625,-0.08177052071392536,0.10861249654069542,0.058852075006440276
1638754212205063200,10.485063232421876,-0.1621089627981186,0.10831102937608957,0.06342690864130854
1638754212215027200,10.495027099609375,-0.15861059928834437,0.1600764340572059,0.11679061536453664
1638754212224990200,10.504990234375,0.008307225096225739,0.18914017758667467,0.07464987505376339
1638754212234953200,10.514953125,0.2170598656475544,0.13718158842101694,0.04887494393661618
1638754212244916200,10.524916259765625,0.28786826284229755,0.025116248012706635,0.0738911656409502
1638754212254880300,10.53488037109375,0.19467793796956537,-0.08300006250888109,-0.0016515665993094442
1638754212264843000,10.544843017578126,-0.046913142344355584,-0.1976539581056684,-0.10865808924809098
1638754212274806000,10.554805908203125,-0.37858021490275856,-0.30575112553536893,-0.10565525417029857
1638754212284770000,10.56477001953125,-0.5865063415020704,-0.4070347404927015,-0.06238105285018682
1638754212294733000,10.574733154296876,-0.5717933410167694,-0.5236201886739581,-0.11722893371656537
1638754212304696000,10.584696044921875,-0.46776305769979953,-0.5768289970964193,-0.20160145362243054
1638754212314660000,10.59466015625,-0.38781858336925507,-0.6052836688168347,-0.2563622407272458
1638754212324623000,10.604623046875,-0.3826479027330875,-0.6224235311228782,-0.22312603381872176
1638754212334586000,10.614586181640625,-0.39836335825920105,-0.5939036852117627,-0.08802592784687877
1638754212344550100,10.624550048828125,-0.3751362119287252,-0.5627394622717052,-0.039719358382746574
1638754212354513200,10.63451318359375,-0.28526187973618505,-0.5163271821215748,-0.10342457250878215
1638754212364476200,10.64447607421875,-0.17903262507021425,-0.3937573257684707,-0.15345299732945858
1638754212374439000,10.65443896484375,-0.10942951201200485,-0.2337629805041477,-0.15694281220659612
1638754212384403000,10.66440283203125,-0.021086627170443534,-0.06263261645846069,-0.08668532689288258
1638754212394366000,10.674365966796875,0.1089344219714403,0.08446129416786134,0.00010214520022273063
1638754212404329000,10.684328857421875,0.2582201435536146,0.23030841960348186,-0.02495236268788576
1638754212414293000,10.69429296875,0.34614860237538814,0.37977337021008134,-0.1637266271278262
1638754212424256000,10.704256103515625,0.28735329905748364,0.5301990556076168,-0.33624117554090915
1638754212434219000,10.714218994140625,0.05071253462731838,0.6815935860373079,-0.4136049126632511
1638754212444183000,10.72418310546875,-0.3109761667072773,0.7265683076649904,-0.3424940984558314
1638754212454146000,10.73414599609375,-0.5652601398557424,0.6487341034866869,-0.22314824565052985
1638754212464109000,10.744109130859375,-0.4971335290908813,0.5475664430592209,-0.09102540192380547
1638754212474073000,10.754072998046874,-0.2100871040254831,0.4482907338581979,0.04872033789679408
1638754212484036000,10.7640361328125,0.06979074458479881,0.28810185240246355,0.09129019033983349
1638754212493999000,10.7739990234375,0.2531833184301853,0.11595168032236397,0.08104943989776074
1638754212503963000,10.783962890625,0.3335977483600378,-0.002366071544215083,0.13504384573996067
1638754212513926100,10.793926025390626,0.3381289620488882,-0.0927741087546572,0.2691897927921265
1638754212523889200,10.80388916015625,0.2769225059360266,-0.15290661549307405,0.3305118381086737
1638754212533852200,10.81385205078125,0.1914700818389654,-0.17935615793615578,0.28968042683079837
1638754212543816200,10.823816162109376,0.11895137359499931,-0.1696558710463345,0.20854761949852108
1638754212553779200,10.833779296875,0.07699263878762722,-0.11910517591722308,0.11205284625291824
1638754212563742200,10.8437421875,0.03511865965425968,-0.10064644956495612,0.07318082541450857
1638754212573706200,10.853706298828126,-0.03017769612073898,-0.11346340717058628,0.04047872538268566
1638754212583669200,10.863669189453125,-0.07739478984773158,-0.1256980713762343,-0.004022825775295496
1638754212593632000,10.873632080078124,-0.10059329460561275,-0.13413856746330857,-0.048082039993256324
1638754212603596300,10.88359619140625,-0.07301788993775844,-0.1269958561018109,-0.06739632372893392
1638754212613559000,10.89355908203125,-0.03521627480983734,-0.13857870533522218,-0.04886325349882245
1638754212623522000,10.90352197265625,0.04018003469705581,-0.15820548908617346,-0.027829671689867972
1638754212633486000,10.913486083984376,0.09457914888262749,-0.17364709610696882,-0.0003089928839355707
1638754212643449000,10.923448974609375,0.1111392385393381,-0.1313960638221353,0.03031169776394963
1638754212653412000,10.933412109375,0.11000935772657394,-0.05395297785326838,0.06796089880913496
1638754212663376100,10.943376220703126,0.10704407818019389,0.03286372033432126,0.12714907390214503
1638754212673339100,10.953339111328125,0.11041969209313392,0.09654884152039885,0.1754758093714714
1638754212683302100,10.96330224609375,0.15260522139370442,0.150327412654832,0.18116876031607387
1638754212693266200,10.97326611328125,0.22519991748332976,0.18500526973903178,0.16939985045865177
1638754212703229200,10.983229248046875,0.30951603102684017,0.2384445989817381,0.1512652049615979
1638754212713192000,10.99319189453125,0.33224516470730303,0.2896451363217085,0.13035956038124857
1638754212723156200,11.00315625,0.2661544436842203,0.3084137688733637,0.04361563516892492
1638754212733119000,11.013118896484375,0.1344581548064947,0.2931364125035703,-0.09867204421944915
1638754212743082000,11.02308203125,-0.023757892206311224,0.22732290098667143,-0.10677329841479659
1638754212753045000,11.033044921875,-0.13607201974391936,0.11564392954744399,-0.009960691391676664
1638754212763009000,11.043009033203125,-0.17519173173308372,-0.016597499057650567,0.059870823594927784
1638754212772972000,11.052971923828125,-0.20895313155949113,-0.1300767248518765,0.06608253771662712
1638754212782935000,11.06293505859375,-0.2459673957020044,-0.16123502950780091,0.02625292389243841
1638754212792899000,11.072899169921875,-0.28120120616853234,-0.0725416507281363,0.06331380365565419
1638754212802862000,11.082862060546875,-0.21504326512813568,0.011758315398171543,0.16579685753062368
1638754212812825000,11.0928251953125,0.02886661352217197,0.035277138151600954,0.19983137520998714
1638754212822789000,11.1027890625,0.2590472420275211,0.011175474008917809,0.1412419697277248
1638754212832751900,11.112751953125,0.26326749007105826,-0.1032582029659301,0.036949382212758064
1638754212842715100,11.122715087890626,0.04508709596097469,-0.22546908981353042,-0.07795476181805133
1638754212852679000,11.132678955078125,-0.22311726599037646,-0.30821736951842904,-0.18343027550727128
1638754212862642200,11.14264208984375,-0.42759646700620646,-0.3520157408431172,-0.1600238270871341
1638754212872605200,11.152605224609376,-0.5332411997824907,-0.3963729150943458,-0.11522650785297155
1638754212882569000,11.16256884765625,-0.5658972687155008,-0.49757915396653113,-0.2357720187716186
1638754212892532200,11.1725322265625,-0.5540186148732901,-0.5846545761555433,-0.4267185151278972
1638754212902495200,11.1824951171875,-0.5075695829093456,-0.6058097385175526,-0.5564746297232807
1638754212912459000,11.192458984375,-0.46662791619002814,-0.5735247679192572,-0.5970951016642153
1638754212922422300,11.20242236328125,-0.4702835160881281,-0.5246729856625199,-0.5010112473070621
1638754212932385300,11.21238525390625,-0.5109387670814991,-0.4679860528007149,-0.29722455860003827
1638754212942349300,11.222349365234376,-0.47271278906166553,-0.40072431523688135,-0.13646554910615086
1638754212952312000,11.23231201171875,-0.3318669790446758,-0.2963186958014965,-0.11593217190429568
1638754212962275000,11.242275146484374,-0.16094693328142165,-0.1770933275707066,-0.1561561918735504
1638754212972239000,11.252239013671876,0.0029109190106391906,-0.004631751453876495,-0.16751359832063317
1638754212982202000,11.2622021484375,0.16518997767865656,0.1597185605302453,-0.14723989496827125
1638754212992165000,11.2721650390625,0.3302332403630018,0.26803718869090076,-0.1016959951505065
1638754213002128100,11.282128173828125,0.48762335794568057,0.4180724865313619,-0.025350275964289903
1638754213012092200,11.292092041015625,0.5162532401025295,0.62862362787202,0.008901903053745627
1638754213022055200,11.30205517578125,0.2965530890792608,0.8187666988909245,-0.06882233794406056
1638754213032018200,11.31201806640625,-0.05629705676138401,0.8478705552350729,-0.03855382173471152
1638754213041982200,11.321982177734375,-0.2122708778053522,0.697692560988292,0.03930076764449477
1638754213051945200,11.3319453125,-0.04756780686080456,0.5630895178183913,0.17343940817303954
1638754213061908000,11.341907958984375,0.13159750467836856,0.38313027942255135,0.344885304441303
1638754213071872000,11.3518720703125,0.25070786822736263,0.1529872795138508,0.3448948759872466
1638754213081835000,11.3618349609375,0.33410277527272697,0.034882074419409034,0.27281865081377327
1638754213091798000,11.371798095703125,0.30417642356455327,0.05080335471592843,0.3389116368591785
1638754213101762000,11.381761962890625,0.18497487460076809,0.039950025333464145,0.2725518165711313
1638754213111725000,11.39172509765625,0.008799977049231529,-0.04833060792684555,0.19131927519142627
1638754213121688000,11.40168798828125,-0.056929509446024894,-0.11013890239037573,0.16995916484184562
1638754213131652000,11.411652099609375,-0.018462708407640457,-0.13003471234105526,0.048438525280728936
1638754213141615000,11.421614990234374,0.01930266636312008,-0.16183233781382442,-0.057964843843132254
1638754213151578000,11.431578125,-0.027892215532064436,-0.1834148587424308,-0.09622457800209522
1638754213161542100,11.441542236328125,-0.15025836600661277,-0.19964279383532701,-0.16130933685302734
1638754213171505200,11.451505126953125,-0.22408172710835933,-0.1911499099738896,-0.16205540597997606
1638754213181468000,11.461468017578126,-0.19920622904896734,-0.20458996791392564,-0.0992096582274884
1638754213191432000,11.471431884765625,-0.08946224426031112,-0.26742862833850084,-0.05699344152770936
1638754213201395000,11.48139501953125,0.023622867649793624,-0.33587394966371353,-0.06225837631858885
1638754213211358000,11.49135791015625,0.07023790383040905,-0.3474924181997776,-0.09691877081133425
1638754213221322000,11.501322021484375,0.011195932275056839,-0.29790742629766465,-0.12553045972436666
1638754213231285000,11.511284912109375,-0.08889175089597702,-0.2015464354995638,-0.11093896672688423
1638754213241248300,11.521248291015626,-0.17360007862746715,-0.09238850697055459,-0.033971097054332496
1638754213251212000,11.5312119140625,-0.16493746422231195,-0.007234262102469802,0.013539134400337934
1638754213261175000,11.541175048828125,-0.09275368702113627,0.011495426678285002,-0.024353666142374275
1638754213271138300,11.55113818359375,0.007601122653484344,0.004644391739740968,-0.078936831657961
1638754213281102000,11.56110205078125,0.0624450579971075,0.02150076092928648,-0.13085625785700977
1638754213291065000,11.571065185546875,-0.011215806019306182,0.04798099077157676,-0.14644341082833706
1638754213301028000,11.581028076171876,-0.14224398637712002,0.1032818030372262,-0.12318119318448006
1638754213310992100,11.5909921875,-0.2547287943065166,0.19856179366558788,-0.0973201181538403
1638754213320955100,11.600955078125,-0.27557927463352677,0.25235746206529436,-0.08450206456966698
1638754213330918100,11.610918212890626,-0.20506255386173725,0.23395583619512617,-0.06738945559673011
1638754213340882200,11.620882080078125,-0.12616086658239364,0.14125979764536023,-0.058532414598017925
1638754213350845200,11.63084521484375,-0.042725043004751204,0.04154387039616704,-0.059022828463464974
1638754213360808200,11.64080810546875,0.02026595843732357,-0.018185864227637648,-0.031745676089823247
1638754213370772200,11.650772216796875,0.05256956067085266,-0.04008826476037502,0.012127514036744832
1638754213380735200,11.6607353515625,0.10702537347972392,-0.029024653628095982,0.0659635875120759
1638754213390698200,11.6706982421875,0.17847557570934294,-0.0023295389261096715,0.11811733392365276
1638754213400662300,11.680662353515626,0.21411095271408556,-0.0006878361336886882,0.13772066373378036
1638754213410625000,11.690625,0.20785949110388754,-0.0013561638493090867,0.15367343514710663
1638754213420588000,11.700588134765624,0.1502145268648863,-0.0028167379211634395,0.1290743428763002
1638754213430552000,11.710552001953126,0.07272212186157703,0.01409443019554019,0.1026978656694293
1638754213440515000,11.72051513671875,-0.0022825579792261123,0.03711260995045304,0.07922806968949735
1638754213450478000,11.73047802734375,-0.04482464563250541,0.05674202404990792,0.05979797755442559
1638754213460442000,11.740442138671876,-0.02879647089540958,0.03205613027848303,0.01828727877549827
1638754213470405000,11.750405029296875,0.01155833584666252,-0.0388054584082216,-0.02349931433536112
1638754213480368000,11.7603681640625,0.039056583625078196,-0.07449417303539813,-0.06678060298338533
1638754213490332200,11.770332275390626,-0.004549333867430686,-0.14996047903858126,-0.09540887770503759
1638754213500295200,11.780295166015625,-0.10472001914680004,-0.23516207017973065,-0.10166004705429077
1638754213510258200,11.790258056640624,-0.18089374276697634,-0.2456756462138146,-0.11540464089885354
1638754213520222200,11.80022216796875,-0.21188976953327654,-0.2326390545081347,-0.10481515008434653
1638754213530185000,11.81018505859375,-0.17823066103756427,-0.23091529945544897,-0.10432195973992348
1638754213540148000,11.82014794921875,-0.13319617204666137,-0.23354177550151942,-0.13477028949558734
1638754213550112000,11.830112060546876,-0.11877893963754177,-0.16355404703989623,-0.11866817273944616
1638754213560075000,11.840074951171875,-0.1669312683880329,-0.07903722329251468,-0.06429813851788639
1638754213570038000,11.8500380859375,-0.20931378156542776,-0.005923325634375214,-0.030750673703104255
1638754213580002000,11.860001953125,-0.22877719144821165,0.02910261423513293,-0.0459013349533081
1638754213589965000,11.869965087890625,-0.19805588997006415,0.04171725420169532,-0.06808291775360703
1638754213599928000,11.879927978515624,-0.10023030651211738,0.06554433918669819,-0.0848234785437584
1638754213609892000,11.88989208984375,-0.026314590951800346,0.07689940754622221,-0.12790383779220282
1638754213619855000,11.899855224609375,-0.007139934882521629,0.09699987322352827,-0.11780614908263086
1638754213629818000,11.909818115234375,0.007344517543911934,0.1264266048464924,-0.07583440866321325
1638754213639782100,11.9197822265625,0.021243279036879538,0.13531579454913734,-0.04662519224844873
1638754213649745000,11.929744873046875,0.03673018650412559,0.12756481509618461,-0.02333323705345392
1638754213659708000,11.9397080078125,0.045349546289443966,0.08632168121226132,0.004281842037662863
1638754213669672000,11.949671875,0.03522854976952076,0.025834333154186605,0.03911437822692096
1638754213679635000,11.959635009765625,0.004461655583977699,-0.01776420474946499,0.05402889263369143
1638754213689598200,11.96959814453125,-0.02792027258276939,-0.032334362697973844,0.09914879488572478
1638754213699562000,11.97956201171875,-0.007179682371020317,-0.02215221057534218,0.09143500563800334
1638754213709525000,11.98952490234375,0.01871522186398506,-0.03556596503034234,0.0640625761963427
1638754213719488300,11.99948828125,0.05595218884646892,-0.05881663836687803,0.03930727045051753
1638754213729452000,12.0094521484375,0.049855625537037845,-0.07439809224978089,0.007551292162388563
1638754213739415300,12.019415283203125,-0.0034101007044315336,-0.07038520334661007,-0.014556860075518489
1638754213749378300,12.02937841796875,-0.0669675038576126,-0.047404798318818206,-0.028466508288681504
1638754213759342000,12.039342041015624,-0.12040917118787765,-0.013457593596726655,-0.0376895330555737
1638754213769305000,12.04930517578125,-0.133282681286335,-0.008909428773075342,-0.04881663787811994
1638754213779268000,12.05926806640625,-0.10400631791949272,-0.015242138925939798,-0.07610182742774486
1638754213789232000,12.069232177734374,-0.05947159514427185,-0.033379926228150725,-0.06523666147701442
1638754213799195100,12.079195068359375,-0.037485973307490345,-0.05041625509448349,-0.05398907207995653
1638754213809158100,12.089158203125,-0.034361703807115555,-0.05787453521117568,-0.03144398972950876
1638754213819122200,12.0991220703125,-0.032144027757644654,-0.056159840247780084,-0.02600245626270771
1638754213829085200,12.109085205078125,-0.04242752136290073,-0.044718481844291086,-0.03127659727334976
