time,seconds_elapsed,z,y,x
1638746348787725800,0.104725830078125,-0.0634691403478384,-0.09636380380969493,-0.044579000308364626
1638746348797689900,0.11468994140625,-0.19592939933538436,-0.008218651763629167,-0.01576338632106781
1638746348807652900,0.12465283203125,-0.16151684212386608,-0.0050656858917325735,-0.01547492476850748
1638746348817616000,0.134615966796875,-0.03441723338663578,-0.07341565708369016,-0.033572599256038664
1638746348827579100,0.1445791015625,0.008387889117002487,-0.08476460622968152,-0.02177957787066698
1638746348837543000,0.15454296875,-0.058199090990424154,-0.04312370519982651,-0.010298252782970667
1638746348847506000,0.164505859375,-0.1138800616800785,-0.028688699671998618,0.010338877054303884
1638746348857469200,0.17446923828125,-0.044449382579326624,-0.04815397271830588,-0.01694324375540018
1638746348867432200,0.18443212890625,0.013621698117256163,-0.08338354540113359,-0.019801263535022734
1638746348877396200,0.194396240234375,0.020540099203586577,-0.07184510156502946,-0.011817863565683364
1638746348887359000,0.20435888671875,-0.013593056544661522,-0.02460577773991972,-0.0059871115855872625
1638746348897322000,0.214322021484375,-0.03480184879004955,-0.01574738503433764,-0.003515606905519962
1638746348907285000,0.224284912109375,-0.0051531449794769285,-0.02339413692783564,-0.00611205313950777
1638746348917249000,0.2342490234375,0.006471826362609863,-0.03099522304870188,0.03849602713286877
1638746348927212000,0.2442119140625,0.03604746493697166,-0.03670081427916884,0.04003668070361018
1638746348937175000,0.254175048828125,0.07958674693405628,-0.04744286530688405,-0.0006263152047991752
1638746348947138000,0.264137939453125,0.09599719898700713,-0.08681081643607468,-0.04101414743363857
1638746348957102000,0.27410205078125,0.03252922768294811,-0.11242736038742586,-0.05235533339828252
1638746348967065000,0.284065185546875,-0.060683309021592136,-0.09122012077830731,-0.01013970122039318
1638746348977027800,0.29402783203125,-0.12472118916809558,-0.045877990610338745,0.021783085002005098
1638746348986990800,0.303990966796875,-0.09225976602435111,-0.0542491295219399,0.012612813335657119
1638746348996955000,0.313954833984375,0.0017149872243404387,-0.07540968044511974,-0.01429506733417511
1638746349006918000,0.32391796875,0.04794365443587303,-0.07596174310361967,-0.04291384357511997
1638746349016881000,0.333880859375,-0.034977789878845214,-0.0816195314032957,-0.03948927595391869
1638746349026844000,0.343843994140625,-0.10081015222668648,-0.051611054369620976,0.011814648695290088
1638746349036808000,0.353807861328125,-0.09619885903894901,-0.010966653563827276,0.030656273417919874
1638746349046771000,0.36377099609375,-0.08425532326698303,-0.0373537069636397,-0.01780775163024664
1638746349056734200,0.373734130859375,-0.07023264313340187,-0.040068537146598096,-0.06357055489569902
1638746349066697200,0.383697265625,-0.12092822662591933,-0.02495316640548408,-0.06022957390472292
1638746349076661000,0.393660888671875,-0.20752923623621464,-0.005635448603704571,-0.02272942594140768
1638746349086624000,0.4036240234375,-0.19964520498812197,0.01712787960730493,0.019796733490377662
1638746349096587000,0.4135869140625,-0.1139367603033781,0.022144228198286143,0.0012868249401450157
1638746349106550000,0.423550048828125,-0.03342179260849953,-0.04351334383822977,-0.05581847946420312
1638746349116514000,0.43351416015625,-0.03849953426420689,-0.08815351801561191,-0.036614597300440074
1638746349126477000,0.44347705078125,-0.10887713882625102,-0.07094694714890792,-0.009861176539957522
1638746349136440000,0.453440185546875,-0.16924012985229492,-0.05091580211445689,0.01106207676231861
1638746349146403000,0.463403076171875,-0.1476987446516752,-0.042609051942266524,0.014409341363608837
1638746349156367000,0.4733671875,-0.09942132821679114,-0.06864175721276551,-0.005932604919373989
1638746349166330000,0.483330078125,-0.06034370180368423,-0.0703078272614628,-0.014243921668827533
1638746349176292900,0.49329296875,-0.04031330568790435,-0.061476870552077886,-0.013032500052452087
1638746349186256000,0.503255859375,-0.018536358165740965,-0.04468921921718865,-0.0037805414520204065
1638746349196220000,0.513219970703125,0.0015565817922353743,-0.04129831640357151,-0.0019578560695052145
1638746349206183000,0.523182861328125,0.015790274327993393,-0.039187808789312835,-0.006863602159172296
1638746349216146000,0.53314599609375,0.012585925328731536,-0.04317618430573493,0.014186054001748561
1638746349226109000,0.54310888671875,0.009998246923089028,-0.04308467009738087,0.017893237956613302
1638746349236073000,0.553072998046875,0.004167056551575661,-0.03966033993819728,0.008910013294965028
1638746349246036000,0.563035888671875,0.023419454032182693,-0.03590655862893909,0.01092529864013195
1638746349255999000,0.5729990234375,0.0373357511818409,-0.034238113960064945,0.005688420899957418
1638746349265962200,0.582962158203125,0.02962883006632328,-0.06207989621283486,-0.010522416927665472
1638746349275926000,0.592926025390625,0.024743396112322805,-0.07638809702321886,-0.029739450833946465
1638746349285889000,0.602888916015625,0.00871931302845478,-0.05554386377390474,-0.0019480653278529643
1638746349295852000,0.61285205078125,-0.009649871876835822,-0.0636743440637365,-0.0077099898554384705
1638746349305815000,0.62281494140625,-0.0006195932030677795,-0.07093881864137948,-0.0033053251557052135
1638746349315779000,0.632779052734375,0.03973579806089401,-0.05224591820705682,0.0065562897756695744
1638746349325742000,0.6427421875,0.07439794611930847,-0.042304150711558755,-0.021134996356815098
1638746349335705000,0.652705078125,0.0957943698912859,-0.04335044489409774,-0.03138137282207608
1638746349345669000,0.662669189453125,0.057258010748028755,-0.03578130654776469,-0.03961494816020131
1638746349355632000,0.672632080078125,-0.04144084841310978,-0.02193476843237877,-0.019755378566682337
1638746349365595100,0.68259521484375,-0.13119710718393324,-0.021516725683398543,-0.014011135826259851
1638746349375558000,0.692557861328125,-0.17905834403336046,0.0030081323074176904,-0.017932547053694722
1638746349385522000,0.70252197265625,-0.169985979783535,0.003958747563138604,-0.03165697489306331
1638746349395485000,0.71248486328125,-0.11916004790961741,-0.016356566441245377,-0.06283288827091454
1638746349405448000,0.722447998046875,-0.08209902201592922,-0.054020599729381495,-0.0789421654202044
1638746349415411000,0.732410888671875,-0.09793664261698723,-0.06265066357180475,-0.07418357271626591
1638746349425375000,0.742375,-0.12425532522201538,-0.04791599924396723,-0.07348170805722475
1638746349435338000,0.752337890625,-0.11764788978099823,-0.02728392917430028,-0.05762728245183825
1638746349445301000,0.762301025390625,-0.08586042037606238,-0.036146669261436906,-0.0437207760438323
1638746349455264300,0.77226416015625,-0.037482466176152224,-0.05058284383304417,-0.012436433855444191
1638746349465228300,0.782228271484375,-0.022500001099705694,-0.043286110953614114,-0.006053893211483955
1638746349475191300,0.79219140625,-0.0233101484388113,-0.02933247746825218,0.004968874453753233
1638746349485154300,0.802154296875,-0.041191257566213606,-0.012113156717829405,-0.0007286065354943275
1638746349495117300,0.812117431640625,-0.07862520842552184,-0.015985047981422393,-0.012087912678718567
1638746349505081300,0.822081298828125,-0.10396832399666309,-0.01621719450317323,0.0037453240081667897
1638746349515044000,0.832044189453125,-0.10377718533873558,-0.03430796432588249,-0.012763473852723837
1638746349525007400,0.84200732421875,-0.06423427950143813,-0.05023260562326759,-0.005143208107352256
1638746349534970400,0.851970458984375,-0.013548048359155655,-0.04029156878013163,-0.023026216930896043
1638746349544934400,0.861934326171875,0.004434767577052116,-0.053875090311467644,-0.02466653148382902
1638746349554897400,0.8718974609375,-0.012779402074217796,-0.05020758077986538,-0.017529226949810982
1638746349564860400,0.8818603515625,-0.022532734325528145,-0.04607471875883638,0.008037906635552644
1638746349574823400,0.891823486328125,0.0006394669473171234,-0.05714117943532765,0.02887538135051727
1638746349584787500,0.901787353515625,0.02298515426814556,-0.059760750816576176,0.02483706574514508
1638746349594750500,0.91175048828125,0.04596037166416645,-0.05410181173942983,0.015290946503728628
1638746349604713200,0.921713134765625,0.026605682852864264,-0.05762006725976243,-0.0039794250249862665
1638746349614677200,0.93167724609375,-0.004095744881033897,-0.04715962791871279,0.02319017532095313
1638746349624640300,0.94164013671875,0.017235796961188314,-0.03927928646504879,0.061642655573040245
1638746349634603300,0.951603271484375,0.04766249940693378,-0.05298007770050317,0.025100246725976466
1638746349644566300,0.961566162109375,0.05135375514030456,-0.04927519530057907,-0.01282411799877882
1638746349654530300,0.9715302734375,-0.006233341431617736,-0.048088177473098036,-0.050616088515520095
1638746349664493300,0.981493408203125,-0.11178513522744178,-0.06483414509072899,-0.057216363563388585
1638746349674456300,0.991456298828125,-0.20902736583948134,-0.05738488853070885,-0.008945376869291066
1638746349684419300,1.00141943359375,-0.22963643862605093,-0.04136445870865136,0.022120354132354258
1638746349694383400,1.01138330078125,-0.19431728796362877,-0.04088357985652983,0.021852935367822644
1638746349704346000,1.02134619140625,-0.11608254016041755,-0.04066502346871421,0.02839037431254983
1638746349714309000,1.03130908203125,-0.0077186115533113475,-0.05584120275266468,0.04613675114437937
1638746349724272000,1.041272216796875,0.06640753188729286,-0.07590104415863752,0.040943712545931335
1638746349734236200,1.051236083984375,0.05851414828896522,-0.08041059400495142,0.006512596764415502
1638746349744199200,1.06119921875,-0.014155951124429703,-0.09028824675567447,-0.015268296280503272
1638746349754162400,1.071162353515625,-0.08750468045175075,-0.08941391160655766,-0.018889555517584086
1638746349764125400,1.08112548828125,-0.0853676684230566,-0.06837408271990716,0.01059065985828638
1638746349774089200,1.091089111328125,-0.08154723335206508,-0.03680327000664547,0.009354103800654412
1638746349784052500,1.101052490234375,-0.06820259861052036,-0.022046265982836485,-0.004563508523255586
1638746349794015500,1.111015380859375,-0.04042261128127575,-0.03954259531004354,-0.010063713374733925
1638746349803978200,1.120978271484375,-0.060004094585776324,-0.048620147191639984,-0.04084171347618103
1638746349813942300,1.1309423828125,-0.12579437135756016,-0.043763336543925106,-0.030939474273473024
1638746349823905300,1.1409052734375,-0.18864099589288233,-0.0459829853547737,-0.06112900696247816
1638746349833868300,1.150868408203125,-0.20012217485010622,-0.0628517208355479,-0.13974895469099283
1638746349843831300,1.160831298828125,-0.19956687905490397,-0.09356540526282042,-0.22587226378694175
1638746349853795300,1.17079541015625,-0.25004735849201676,-0.14722115373518316,-0.373904770437628
1638746349863758300,1.18075830078125,-0.3066407678514719,-0.16045129525158552,-0.4242860272839665
1638746349873721300,1.190721435546875,-0.21240882497131824,-0.16982052355613558,-0.3140487060204148
1638746349883684400,1.200684326171875,-0.017252748095989225,-0.17702303881347178,-0.2392103226572275
1638746349893648400,1.2106484375,0.027718028008937835,-0.10041592874471097,-0.18190993407219647
1638746349903611100,1.220611083984375,-0.0377449165046215,-0.027962540821917355,0.055926762144267554
1638746349913574100,1.23057421875,-0.07126666235625743,0.02137366395089775,0.3230078922193497
1638746349923537200,1.240537109375,-0.06282090557217597,0.06562518587056547,0.40693376433625816
1638746349933501200,1.250501220703125,-0.05915010810494423,0.08042964576529338,0.2775521090764552
1638746349943464200,1.260464111328125,-0.04395136992931366,0.06802168908566236,0.09527443767040968
1638746349953427200,1.27042724609375,0.02661328163743019,0.03670943597704172,-0.06580408610142767
1638746349963391200,1.28039111328125,0.12159575062394141,0.014884521127305924,-0.17945596504881978
1638746349973354200,1.290354248046875,0.18739128809273242,0.07716775789251551,-0.1970497816674411
1638746349983317200,1.300317138671875,0.16022914040088654,0.11879998242557048,-0.14365363397933542
1638746349993280500,1.310280517578125,0.07088730764985084,0.11867149720769375,-0.06388115521483123
1638746350003244300,1.320244384765625,0.04673018699288368,0.12993253060821444,0.06920373847708106
1638746350013207300,1.330207275390625,0.04736205515563488,0.13635076362006365,0.17904628826938568
1638746350023170300,1.34017041015625,0.022833763098716736,0.0862125765482895,0.2975548865329474
1638746350033133300,1.35013330078125,0.018976503148674963,-0.0008320303773507475,0.37304150467179714
1638746350043097300,1.360097412109375,0.07347498605549335,-0.053638961734343314,0.36250440163165326
1638746350053060400,1.370060302734375,0.18314590560793875,-0.04289959585405886,0.26691147259660064
1638746350063023400,1.3800234375,0.26330314590632914,-0.0706058420936577,0.17464206196106968
1638746350072986400,1.389986328125,0.2772171049684286,-0.14100531142763792,0.06001183950081467
1638746350082950400,1.399950439453125,0.2063186914026737,-0.20128358331229537,-0.02439414428323507
1638746350092913400,1.409913330078125,0.09762275436222553,-0.2015134830780327,-0.08525522102452814
1638746350102876200,1.419876220703125,0.010650573351979255,-0.20699867302346972,-0.1873359046436846
1638746350112839200,1.429839111328125,-0.10452654240131377,-0.1754852713195607,-0.2303942712560296
1638746350122803200,1.43980322265625,-0.2583867322921753,-0.10951671537142246,-0.20246917636767028
1638746350132766200,1.44976611328125,-0.3883247793257236,-0.06566128009725361,-0.15667473585493863
1638746350142729200,1.459729248046875,-0.3884001826494932,-0.09014571474613621,-0.1179467996623367
1638746350152692200,1.469692138671875,-0.2752548649847507,-0.08507383657563478,-0.14304368538744747
1638746350162656300,1.47965625,-0.19241642277836798,-0.09498822287386283,-0.17550174753032624
1638746350172619300,1.489619384765625,-0.22200258274674414,-0.14164423038568347,-0.15332228362187741
1638746350182582300,1.499582275390625,-0.26051497649252414,-0.1300125735744834,-0.11378624591678381
1638746350192545500,1.509545654296875,-0.27737200326919553,-0.07545362918470054,-0.05667611920684576
1638746350202509300,1.51950927734375,-0.24429683214128017,-0.02963295825216919,-0.03305895064547658
1638746350212472300,1.529472412109375,-0.13714578645527362,0.0096706589365378,-0.05781754432693124
1638746350222435300,1.539435302734375,0.04000993882715702,0.0402461222032085,-0.05941789219565689
1638746350232398300,1.5493984375,0.19379940156936645,0.057118127353303134,0.002285992045328021
1638746350242362400,1.5593623046875,0.3021457945197821,0.07172040660628118,0.08164777111709118
1638746350252325400,1.569325439453125,0.334621246188879,0.0750374861318618,0.13747998684570192
1638746350262288400,1.579288330078125,0.310527253895998,0.04583711061067879,0.13957242908030748
1638746350272251400,1.58925146484375,0.227946585842967,-0.0010310874802526085,0.12522548542842268
1638746350282215400,1.59921533203125,0.11249649836719035,-0.04631079253703355,0.06725866882391274
1638746350292178400,1.609178466796875,-0.01219663375020027,-0.07354962219428271,0.0459222316108644
1638746350302141200,1.61914111328125,-0.08630757962167263,-0.07075367133282125,0.03076630966365337
1638746350312105200,1.629105224609375,-0.12902327027618885,-0.04154798944885842,0.08424341363348066
1638746350322068200,1.639068115234375,-0.1548889484167099,-0.029329034268995746,0.14955116758532822
1638746350332031200,1.64903125,-0.11561141551733016,-0.06291811886895447,0.17852613685280083
1638746350341994200,1.658994140625,-0.05016483761668205,-0.11705699294945224,0.11650938727036118
1638746350351958300,1.668958251953125,0.02002104376554489,-0.16148883987208829,0.021482056228816507
1638746350361921300,1.67892138671875,0.050632455128431314,-0.174026998802647,-0.048597880560904735
1638746350371884300,1.68888427734375,-0.039810032340884205,-0.1751680951291695,-0.14929836186803877
1638746350381847300,1.698847412109375,-0.1684387503415346,-0.038543373405933376,-0.12674889560341834
1638746350391811300,1.708811279296875,-0.31761691989600654,-0.005942176465317607,-0.05085998027399182
1638746350401774300,1.7187744140625,-0.4409142137408256,-0.14694065629336983,0.004002221378684044
1638746350411737000,1.728737060546875,-0.33692893860936163,-0.17769246250763535,0.09018602849021554
1638746350421700400,1.738700439453125,-0.13269640583097933,-0.1329688295641914,0.16342610981129108
1638746350431664000,1.7486640625,-0.07181962006390094,-0.11134685340803116,0.20228205629773438
1638746350441627400,1.75862744140625,-0.03182721689343452,-0.04353796682283282,0.16023454722836614
1638746350451590400,1.76859033203125,0.09132394647896289,0.02354451431711204,-0.0057595864400267595
1638746350461554000,1.778553955078125,0.16599369527697563,0.01987755277478136,-0.12933401672579348
1638746350471517700,1.788517578125,0.08219839073717594,-0.018192257435806096,-0.16480623905807731
1638746350481481000,1.79848095703125,-0.05732347719967365,0.05986998334471136,-0.15966244642883537
1638746350491444000,1.80844384765625,-0.17773440195322035,0.20353611147943884,-0.07013846204392611
1638746350501407000,1.818406982421875,-0.24324177013039588,0.28365185072366145,0.03837335060127079
1638746350511371000,1.82837109375,-0.21058102502226828,0.29969113137666137,0.0427709279730916
1638746350521334000,1.838333984375,-0.08893266742825508,0.2996987301612273,-0.0396898400273174
1638746350531297000,1.848297119140625,0.007738485297560691,0.2936376400239765,-0.13071034658029676
1638746350541259800,1.858259765625,0.06492343080937862,0.24123972785929215,-0.16167144816368817
1638746350551224000,1.86822412109375,0.0773328305274248,0.1570959934743121,-0.15018288961760698
1638746350561186800,1.878186767578125,0.055826516640186306,0.059124462207034226,-0.14640548997074365
1638746350571149800,1.88814990234375,-0.0482978747010231,-0.02137337168995291,-0.10908683605417609
1638746350581112800,1.89811279296875,-0.19060440492033956,-0.09218162275422363,-0.05568900786563754
1638746350591076900,1.908076904296875,-0.25268004508316516,-0.13429291777480393,-0.012879063056409358
1638746350601040000,1.918039794921875,-0.2133949133992195,-0.17473701023552565,0.029453546564653516
1638746350611003000,1.9280029296875,-0.10078618682920933,-0.2233397131020203,0.05615494487695396
1638746350620966000,1.9379658203125,0.01906301238834858,-0.2439322548788972,0.07147782088890671
1638746350630930000,1.947929931640625,0.1047258643656969,-0.274684846544452,0.10740618949085473
1638746350640893000,1.957892822265625,0.1226332769781351,-0.31320418148767204,0.13881459645032881
1638746350650855700,1.967855712890625,0.10460428381264208,-0.2957497368071228,0.1514258023507893
1638746350660818700,1.977818603515625,0.10278934334516525,-0.2561336926683783,0.1422122029993683
1638746350670782700,1.98778271484375,0.13192074528336525,-0.22623477695640176,0.07776260024681687
1638746350680745700,1.997745849609375,0.1476116508901119,-0.16017678915914146,0.011139452847465873
1638746350690709000,2.007708984375,0.16955577167272567,-0.08953489850456826,-0.010386734784021972
1638746350700672000,2.017672119140625,0.15012801762521266,-0.038212168690189716,0.005010667768865823
1638746350710635800,2.0276357421875,0.06449789887368679,-0.003414375020749867,0.030460166323930022
1638746350720599000,2.03759912109375,-0.054875499525666234,0.03619344927892089,0.04615940136760473
1638746350730562000,2.04756201171875,-0.09298983386456966,0.054255321800708765,0.05338555322885513
1638746350740524800,2.05752490234375,-0.07836860331594944,0.04772778319548815,0.02203545232787728
1638746350750489000,2.067489013671875,-0.02499941670000553,0.05256769750732928,-0.03777677294760942
1638746350760451800,2.077451904296875,-0.026734862190484997,0.047274815263599154,-0.12191847977228462
1638746350770414800,2.087414794921875,-0.09101414987742901,0.022998086814954875,-0.18105382869951425
1638746350780379000,2.09737890625,-0.1304594405591488,-0.01628065166082233,-0.182962657995522
1638746350790342000,2.107341796875,-0.1394341896533966,-0.016400113322027027,-0.16184746231772004
1638746350800305000,2.117304931640625,-0.1719376983731985,0.009990803402150049,-0.1165487694326788
1638746350810268000,2.127267822265625,-0.22183657853007316,0.020241445050574836,-0.08748772931694984
1638746350820232000,2.13723193359375,-0.2607008544534445,0.03193420266555622,-0.06727956548146903
1638746350830195000,2.14719482421875,-0.28708792611956596,0.014199023081175982,-0.0638742140173912
1638746350840158000,2.157157958984375,-0.2887251719325781,-0.008649517461564392,-0.04604030503258109
1638746350850120700,2.16712060546875,-0.23268588932454584,-0.03660933660343289,-0.04320201286673546
1638746350860084700,2.177084716796875,-0.1518517726778984,-0.04814889468438923,-0.03935388607122004
1638746350870047700,2.1870478515625,-0.08467851711511612,-0.03642166854422539,-0.02959865412376821
1638746350880010800,2.1970107421875,-0.03892681976556778,-0.015687471540644763,-0.01007218894213438
1638746350889973800,2.206973876953125,-0.03547404896318912,0.010153510550037026,0.02715060338452458
1638746350899937800,2.216937744140625,0.0003156418204307556,0.012138619952648878,0.06789864722788333
1638746350909900800,2.22690087890625,0.0725707306921482,0.015284114904142915,0.09909604178518057
1638746350919864000,2.236864013671875,0.13391045779585836,0.006374576533213257,0.09212079594507813
1638746350929827000,2.2468271484375,0.20247779806554317,-0.007408997614867985,0.07042232048660517
1638746350939790800,2.256790771484375,0.2667763749748468,-0.01650512633277103,0.05695215966925025
1638746350949754000,2.266754150390625,0.27056524586379527,-0.04603013069843873,0.03432414827570319
1638746350959716900,2.276716796875,0.18809096079468726,-0.11535921258823946,0.05277582383267581
1638746350969680000,2.286679931640625,0.10048515805602073,-0.14280588544304482,0.1457388427555561
1638746350979644000,2.296643798828125,0.025138532909750936,-0.08949613739675842,0.2797838136512786
1638746350989607000,2.30660693359375,-0.08732640127539634,-0.007262995006609708,0.3443554353483021
1638746350999570000,2.31656982421875,-0.16608838782310484,0.037952385242842133,0.32619594767093657
1638746351009533000,2.326532958984375,-0.13274550566971302,0.02578797326181084,0.220789188368991
1638746351019497000,2.3364970703125,-0.08865677309632301,-0.008808617013413459,0.030275749667733907
1638746351029460000,2.3464599609375,-0.06992576914131642,-0.07061448205783963,-0.13692264522388575
1638746351039423000,2.356423095703125,-0.029039047479629515,-0.1216010843861848,-0.23487799254134295
1638746351049385700,2.3663857421875,-0.015803133809566498,-0.08977046995926648,-0.2710200038939714
1638746351059349800,2.376349853515625,-0.0944914705991745,-0.022313392486423254,-0.24186828982010483
1638746351069312800,2.386312744140625,-0.17449790425002573,-0.013136544948816298,-0.1585791081715375
1638746351079275800,2.39627587890625,-0.2294809558033943,-0.03525952942967415,-0.07833623541630805
1638746351089238800,2.40623876953125,-0.29838147355020045,-0.0346381095957011,-0.054929860061407085
1638746351099202800,2.416202880859375,-0.33564708210527894,-0.031623912873677905,-0.06104403209276497
1638746351109165800,2.426165771484375,-0.2912543981492519,-0.024192118905112147,-0.06967179438024759
1638746351119128800,2.43612890625,-0.16953414436280725,-0.013313472418300807,-0.07039031791314482
1638746351129092000,2.446092041015625,-0.09273732040822505,-0.012938026702031492,-0.06441460450440645
1638746351139055900,2.456055908203125,-0.09081190530359745,-0.00957795741809532,-0.06845072815269232
1638746351149019000,2.466018798828125,-0.14001169728040694,-0.00750712422709912,-0.07459770647510885
1638746351158982000,2.47598193359375,-0.16943126851022242,-0.02495093791577965,-0.08143880454152821
1638746351168945700,2.485945556640625,-0.11192542048096656,-0.03609534093299881,-0.08801372595243155
1638746351178909000,2.495908935546875,-0.010825345396995544,-0.036366942682303484,-0.1020551838517189
1638746351188872000,2.505871826171875,0.08297580485045909,-0.04058039565887302,-0.08798062740042806
1638746351198835000,2.5158349609375,0.12853168736696244,-0.0710912875230424,-0.009529387302324175
1638746351208799000,2.525799072265625,0.12219137842953204,-0.07283164665065706,0.03700710374936461
1638746351218762000,2.535761962890625,0.08253916699886321,-0.040404892961494625,0.07369491241648793
1638746351228725000,2.54572509765625,0.017463760498166083,-0.041429559834115205,0.12453406909815966
1638746351238688000,2.55568798828125,-0.010427870512008667,-0.04394768013488501,0.12066592242792248
1638746351248652000,2.565652099609375,0.031385318344831464,-0.051366797284968194,0.08518632050678134
1638746351258614800,2.57561474609375,0.09767010063529014,-0.04800433511454612,0.03010390023216605
1638746351268577800,2.585577880859375,0.15091361504495143,-0.04813895781226456,0.0019004998590797185
1638746351278540800,2.595540771484375,0.19871055448651312,-0.039150728181935844,0.006706219640374184
1638746351288504800,2.6055048828125,0.22514029625058174,-0.01879846143433824,0.01381049868762493
1638746351298467800,2.6154677734375,0.17160861254930496,0.004954462335910648,0.032101503790169954
1638746351308430800,2.625430908203125,0.044428924313187595,0.015961210448108613,0.010799041911959647
1638746351318393900,2.635393798828125,-0.08218786934316158,0.004026698232814669,-0.004185907382518053
1638746351328358000,2.64535791015625,-0.12011515667736529,-0.01004221392897889,0.004094575837254524
1638746351338321000,2.65532080078125,-0.11971300561726092,-0.001501417538896203,-0.013181407003849744
1638746351348283600,2.66528369140625,-0.09397124611735343,0.004563837316818535,-0.022764570320025084
1638746351358247000,2.675246826171875,-0.07921440649032592,-0.0014093188086524604,-0.019415698283538223
1638746351368210700,2.685210693359375,-0.09759703539907932,-0.02252137268129736,-0.015167685450240968
1638746351378174000,2.695174072265625,-0.14121698141694067,-0.04253485419489443,-0.01853504299148917
1638746351388137000,2.705136962890625,-0.20869652644991873,-0.047991713094990694,-0.02289645307138562
1638746351398100000,2.715099853515625,-0.2397422375768423,-0.04406255695251748,-0.029806305525079367
1638746351408064000,2.72506396484375,-0.2214905415713787,-0.06806099818274379,-0.04293897801637649
1638746351418027000,2.735027099609375,-0.14093056569099424,-0.08545512751080095,-0.0375227981865406
1638746351427990000,2.744989990234375,-0.09052315149009227,-0.0668432929560542,-0.033924189172685144
1638746351437953000,2.754953125,-0.09480068267881869,-0.04547521849572658,-0.02923208583369851
1638746351447917000,2.7649169921875,-0.09432780447006225,-0.03523118011802435,0.006149608670920133
1638746351457879800,2.7748798828125,-0.07834346887469291,-0.02735978915579617,0.01680456593707204
1638746351467842800,2.7848427734375,-0.0710503892570734,-0.011702310894615948,0.01691767092272639
1638746351477805800,2.794805908203125,-0.08471768008172512,-0.0019369959445670246,-0.017053864523023366
1638746351487769900,2.804769775390625,-0.0768324797898531,-0.022410477919038385,-0.030428529076650737
1638746351497732900,2.81473291015625,-0.041672319081425664,-0.02984932268289849,-0.0418602428689599
1638746351507695900,2.82469580078125,-0.025737083324789998,-0.028622155508119612,-0.03717522685788572
1638746351517659000,2.834658935546875,-0.03580430383086204,-0.00641213206462562,-0.007967179486900568
1638746351527623000,2.844622802734375,-0.05192074137330055,0.011448372666165232,0.04357333039715886
1638746351537586000,2.8545859375,-0.045783261531591415,0.008686086612287909,0.06431063267327845
1638746351547548700,2.864548583984375,-0.029326047727465627,-0.010591244380176067,0.07737199349403381
1638746351557511700,2.87451171875,-0.021905542337894438,-0.015808924229536205,0.0780969467677176
1638746351567475700,2.884475830078125,-0.03191314161121845,-0.015011654638312756,0.06066401979923248
1638746351577438700,2.894438720703125,-0.0210053786277771,-0.01425605049803853,0.04264839757196605
1638746351587402000,2.904402099609375,0.0023398411244153973,-0.025622224773466585,0.024247283158451316
1638746351597365800,2.91436572265625,0.028419454276561736,-0.03831230459641665,-0.011362009556964038
1638746351607328800,2.924328857421875,0.012757190242409705,-0.0449332571061328,-0.02262910737209022
1638746351617292000,2.9342919921875,-0.03180734314918518,-0.03096128424648195,-0.022779475628212094
1638746351627255000,2.944255126953125,-0.047052843075990676,-0.030364560462348162,-0.02687967748865485
1638746351637219000,2.954218994140625,-0.04986965406239032,-0.03495667402558029,-0.03388502620607614
1638746351647182000,2.96418212890625,-0.039804771643877024,-0.03433397554997355,-0.0218188869677484
1638746351657144800,2.974144775390625,-0.036220483416318894,-0.036149719735048706,-0.013571794560924172
1638746351667107800,2.98410791015625,-0.022936054429411885,-0.02826009899638593,-0.016181465602666138
1638746351677072000,2.99407177734375,-0.024184593185782432,-0.02796184670217335,-0.03811930277496576
1638746351687035000,3.004034912109375,-0.02735387087166309,-0.030037155138887463,-0.05767864731289446
1638746351696998000,3.013997802734375,-0.035876200023293496,-0.037960349353589114,-0.07093816105425357
1638746351706961000,3.0239609375,-0.04065174386203289,-0.042463652122206985,-0.08229235263094306
1638746351716925000,3.033925048828125,-0.043451603713631624,-0.03895827434975654,-0.07875913700349628
1638746351726888000,3.043887939453125,-0.04444236831665039,-0.044002186801098284,-0.07326163556575775
1638746351736851000,3.053850830078125,-0.0427338108330965,-0.029983159929327666,-0.04838255730979144
1638746351746813700,3.063813720703125,-0.04285714495182037,-0.023436039840802548,-0.02639116331934929
1638746351756777700,3.07377783203125,-0.059497898629307745,-0.012115714001096784,-0.01458637843094766
1638746351766740700,3.08374072265625,-0.06180442200601101,-0.0048420697363093495,-0.006902838191017508
1638746351776703700,3.093703857421875,-0.054689037042856214,-0.009700396487675607,0.002860430932417512
1638746351786666800,3.103666748046875,-0.048773675519227976,-0.01959405052512884,-0.0036653906397521494
1638746351796630800,3.113630859375,-0.038946693509817124,-0.029199425673112272,0.005532645816355943
1638746351806593800,3.12359375,-0.05379413402974605,-0.0376517583284527,-0.0019839403588324785
1638746351816557000,3.13355712890625,-0.06564823795258999,-0.03618572263019159,0.011741437328606844
1638746351826520000,3.14352001953125,-0.07631283982992172,-0.038767263555992394,0.01593114410340786
1638746351836483800,3.15348388671875,-0.06347557008862495,-0.044522356483992186,0.009725494396314024
1638746351846447000,3.163447021484375,-0.05598141494095325,-0.0430021611793898,0.007825505993887781
1638746351856409900,3.173409912109375,-0.03936404213905334,-0.0396945892676711,0.017335238747671247
1638746351866372900,3.183372802734375,-0.04117664451897144,-0.03436999671142548,0.0330273864634335
1638746351876337000,3.1933369140625,-0.04853577511012554,-0.021315759751200675,0.04295147217176854
1638746351886300000,3.2032998046875,-0.04018237278461456,-0.006268887669034302,0.040872181679680944
1638746351896263000,3.213262939453125,-0.04154956948459148,-0.001156366960890591,0.0416151820667088
1638746351906226000,3.223225830078125,-0.05265314730107784,0.002758979851938784,0.03228628577254712
1638746351916190000,3.23318994140625,-0.06899754838049411,0.008375230564828962,0.02401120938025415
1638746351926153000,3.243153076171875,-0.07291676765084266,0.010061338754557073,0.01868117346391082
1638746351936116000,3.253115966796875,-0.06350947235822678,0.012476765865832566,0.012815350170433521
1638746351946078700,3.26307861328125,-0.04930500591695308,-0.0067328336526639755,0.006294789295271039
1638746351956042800,3.273042724609375,-0.041837154254317284,-0.009207224409561603,0.005613455967605114
1638746351966005800,3.283005859375,-0.03990881654024124,-0.014596023042127489,0.012744038499891757
1638746351975968800,3.29296875,-0.04068506160974502,-0.020658026494830846,0.0040966947291046375
1638746351985932800,3.302932861328125,-0.03650397653281688,-0.033664734518900515,0.0035270050823688506
1638746351995895800,3.312895751953125,-0.037414661636948586,-0.04189474792676046,-0.009251666339486837
1638746352005858800,3.32285888671875,-0.04341828596591949,-0.04049109167391434,-0.022598273842409252
1638746352015821800,3.33282177734375,-0.05880231758058071,-0.041597792540490626,-0.03824066413231194
1638746352025785900,3.342785888671875,-0.06742752258479595,-0.03579728956818581,-0.04391593328975141
1638746352035748900,3.352748779296875,-0.05793839422762394,-0.040189094786345955,-0.0523531414411962
1638746352045712000,3.3627119140625,-0.061169631233811375,-0.04215902488613501,-0.04955642339475452
1638746352055675000,3.3726748046875,-0.06016600714921951,-0.049823805626668036,-0.055495311924442646
1638746352065638700,3.382638671875,-0.05123626624047756,-0.043679165391810236,-0.05272343605831265
1638746352075602000,3.392601806640625,-0.04398059602379799,-0.039141887288354334,-0.043266529470309616
1638746352085565000,3.40256494140625,-0.03286298968195915,-0.037323110895976425,-0.03780307643264532
1638746352095528000,3.41252783203125,0.0005506196200847625,-0.03183898039646447,-0.031427769247069956
1638746352105492000,3.422491943359375,-0.003906944310665131,-0.02511674120305106,-0.021041326723992823
1638746352115455000,3.432455078125,-0.01868482672572136,-0.020830770979542283,-0.027749080734327435
1638746352125418000,3.44241796875,-0.03183832280933857,-0.012176431212387978,0.005797507297620177
1638746352135381000,3.452381103515625,-0.03487608307003975,-0.009565919920429588,0.004218056086450815
1638746352145345000,3.462344970703125,-0.04109598049819469,-0.014969167203456162,0.021961071917414664
1638746352155307800,3.472307861328125,-0.01604746395945549,-0.006663768738135695,0.026761750197410582
1638746352165270800,3.482270751953125,0.004547580301761627,-0.021272066739946603,0.011646452521532773
1638746352175233800,3.49223388671875,-0.015569325053691864,-0.016790318216010926,0.01723426259122789
1638746352185197800,3.50219775390625,-0.05080488908588886,-0.01766721064839512,0.01841521600410342
1638746352195160800,3.512160888671875,-0.06209434486329555,-0.02283772688778117,0.03214643891043961
1638746352205123800,3.522123779296875,-0.0631903234064579,-0.017175572940241544,0.03287015007510781
1638746352215086800,3.5320869140625,-0.07415946118831634,-0.019703209988027808,0.02757474708072841
1638746352225051000,3.54205078125,-0.08992226298749446,-0.012161343241110444,0.026039135011285543
1638746352235014000,3.552013916015625,-0.07861117990016937,-0.010323021898046136,0.02310132799372077
1638746352244977000,3.561976806640625,-0.05186170466244221,-0.007546360258944332,0.004679536118358373
1638746352254940000,3.57193994140625,-0.03672843293845653,-0.018144655434414743,-0.006432590330764651
1638746352264903700,3.581903564453125,-0.050179450663924215,-0.023639818784594535,-0.0058443421140313145
1638746352274867000,3.591866943359375,-0.06661620620191097,-0.02002619486469775,-0.0024695319186896084
1638746352284830000,3.601829833984375,-0.07782733604609966,-0.02229899863488972,-0.006644406450539827
1638746352294793000,3.61179296875,-0.06624737288951874,-0.026934987872466443,-0.014175532607734203
1638746352304757000,3.621757080078125,-0.059274611267447465,-0.03846935832165181,-0.019249255675449967
1638746352314720000,3.631719970703125,-0.06446516564786434,-0.040322347510885446,-0.020413769410178063
1638746352324683000,3.64168310546875,-0.05726327144503593,-0.02607457165084779,-0.03349156990908086
1638746352334646000,3.65164599609375,-0.0438841499119997,-0.02186977690476924,-0.03265343858450651
1638746352344610000,3.661610107421875,-0.027184359523653983,-0.027101540078409016,-0.03354644190147519
1638746352354572800,3.67157275390625,-0.026492285606265067,-0.027019268622435626,-0.03493212410621345
1638746352364535800,3.681535888671875,-0.04095452620089054,-0.021957418655604122,-0.01697699989452958
1638746352374499800,3.691499755859375,-0.05677811827659607,-0.028190285163186488,-0.011183803445845842
1638746352384462800,3.701462890625,-0.04640343925654888,-0.019638181927800178,-0.015360723804309964
1638746352394425900,3.71142578125,-0.0375356576681137,-0.03508678494496271,-0.00999145185612142
1638746352404388900,3.721388916015625,-0.028114333850145338,-0.03720237059313804,-0.0044049569606781
1638746352414353000,3.731352783203125,-0.002099018105864525,-0.016913433139026164,0.0020659926190972327
1638746352424316000,3.74131591796875,-0.003003273469209671,-0.017570234813634306,-0.018838921308889985
1638746352434279000,3.75127880859375,-0.016626725152134893,-0.020142368590272963,-0.014296382508426905
1638746352444241700,3.76124169921875,-0.026983868515491484,-0.016863237321749328,0.008439765434712171
1638746352454206000,3.7712060546875,-0.0305254866451025,-0.015272826325148344,0.012713351100683211
1638746352464168700,3.781168701171875,-0.030325580158829687,-0.004778722176514566,0.020117197616398335
1638746352474131700,3.791131591796875,-0.031925416570901866,0.0014187076915055513,0.0034556934118270873
1638746352484095000,3.801094970703125,-0.03453063063323498,-0.0048099210323765875,-0.005339826657995581
1638746352494058800,3.811058837890625,-0.04791968903839588,-0.013300905197672545,0.006445961268991231
1638746352504021800,3.821021728515625,-0.05353986700773239,-0.011094024536851793,0.003210851805284619
1638746352513984800,3.83098486328125,-0.05883680437207222,-0.02642831699196249,-0.0032153818499296902
1638746352523947800,3.84094775390625,-0.06443009433448314,-0.025420856982469556,0.0024353373881429432
1638746352533911800,3.850911865234375,-0.0716734895914793,-0.029036599794216453,-0.002038154764100909
1638746352543874800,3.860874755859375,-0.07817629561424255,-0.0246171028515324,0.005505465548485518
1638746352553837800,3.870837890625,-0.05373626636266708,-0.02649148188866675,0.010899725807458162
1638746352563800800,3.88080078125,-0.05159574720263481,-0.028225027683004736,0.013952099115401505
1638746352573764900,3.890764892578125,-0.02672784792780876,-0.02776592227127403,0.0005012275204062461
1638746352583727900,3.900727783203125,-0.013674889609217642,-0.018297580973803997,-0.0005839373677968978
1638746352593691000,3.91069091796875,-0.033089199653267856,-0.018066274702269583,-0.00457534509152174
1638746352603653600,3.920653564453125,-0.06400105526745319,-0.018956592871807513,-0.008183671781793236
1638746352613617700,3.93061767578125,-0.0920160203963518,-0.026996709730755537,-0.003512684296071529
1638746352623580700,3.94058056640625,-0.09185001617968082,-0.03971334876706824,-0.021625556352734564
1638746352633543700,3.950543701171875,-0.10450842222273349,-0.0396921963811852,-0.03512399341650307
1638746352643506700,3.960506591796875,-0.10263093791306019,-0.032027744434215126,-0.04161744708903133
1638746352653470700,3.970470703125,-0.08235387355983256,-0.012022902884799987,-0.036845702642574904
1638746352663433700,3.980433837890625,-0.05594575910568237,-0.005611264010518789,-0.029849852405861018
1638746352673396700,3.990396728515625,0.0005512041419744491,-0.01014200277533382,-0.029803163719922303
1638746352683360800,4.00036083984375,0.009310849180817603,-0.01838171559330076,-0.014901216533780097
1638746352693323800,4.01032373046875,-0.0009667992055416107,-0.018479440346732736,-0.000037701661884784696
1638746352703286500,4.02028662109375,-0.029836335337162016,-0.018210213217604906,0.01108509231172502
1638746352713249800,4.030249755859375,-0.04484159676730633,-0.020226612807624042,0.02098857362344861
1638746352723213600,4.040213623046875,-0.028746202012896536,-0.0272445652782917,0.018381971321627496
1638746352733176800,4.0501767578125,-0.002179097604751587,-0.02726131548369303,0.012238719326257705
1638746352743139800,4.060139892578125,-0.010168927314877509,-0.03770878574531525,0.0010894026719033716
1638746352753102800,4.070102783203125,-0.01783902355134487,-0.039745479204691944,-0.014549188225716351
1638746352763067000,4.08006689453125,-0.04554594564437866,-0.028212862321175633,-0.02341828498840332
1638746352773030000,4.09002978515625,-0.0626414573520422,-0.01868795026456937,-0.013936828481033444
1638746352782993000,4.099992919921875,-0.06731061820685863,-0.01827412703298032,0.0011691168446093796
1638746352792955600,4.10995556640625,-0.06300970614254474,-0.011822010017838329,0.005419979222118854
1638746352802920000,4.119919921875,-0.06290156959295272,-0.010417075123358517,0.007269771807268261
1638746352812882700,4.129882568359375,-0.061443187478184697,-0.0135996689485386,0.011646379456296563
1638746352822845700,4.139845703125,-0.062221770635247226,-0.018706125242076814,0.003836509422957897
1638746352832808700,4.14980859375,-0.06087620124518871,-0.015339206092245875,0.0023613223038613795
1638746352842772700,4.159772705078125,-0.06492927602827549,-0.0217368529737927,-0.004120440930873155
1638746352852735700,4.16973583984375,-0.052043490970134734,-0.024844262670911846,-0.020856763937324285
1638746352862698800,4.17969873046875,-0.059516018807888024,-0.02895191718544811,-0.02436389527544379
1638746352872661800,4.189661865234375,-0.06336977162659167,-0.03076291213016957,-0.016285802759975192
1638746352882625800,4.199625732421875,-0.056606853362917896,-0.027841763986460863,-0.00817519621439278
1638746352892588800,4.2095888671875,-0.044591421398520466,-0.02238236606940627,-0.004790595277398824
1638746352902551600,4.219551513671875,-0.05442892480194568,-0.019867807698901743,-0.012602365006878972
1638746352912514600,4.2295146484375,-0.05858662900328636,-0.01861535995239392,-0.01169767125211656
1638746352922478600,4.239478515625,-0.058984688410162925,-0.0133235554208979,-0.01828099516518414
1638746352932441600,4.249441650390625,-0.056688101905584334,-0.010553067794255912,-0.010190993016213177
1638746352942404900,4.25940478515625,-0.04225684097111225,-0.017847279923036693,-0.009091580406948924
1638746352952367900,4.269367919921875,-0.036062662506103516,-0.021765585877932606,-0.0030120412975549694
1638746352962331600,4.27933154296875,-0.05140753115415573,-0.023900077155977487,-0.007752952214330434
1638746352972295000,4.289294921875,-0.06289689341783523,-0.02311009582206607,-0.0009747633162885904
1638746352982258000,4.2992578125,-0.04164192394316196,-0.019704744357988236,0.010967530346661805
1638746352992220700,4.309220703125,-0.018444003707170486,-0.017538378370646385,-0.00040324703864753246
1638746353002185000,4.31918505859375,-0.017059855872392653,-0.023608692993968724,-0.012052329908683896
1638746353012147700,4.329147705078125,-0.028413024535775183,-0.025712021948769686,-0.007980185098946093
1638746353022110700,4.33911083984375,-0.034926351952552795,-0.015533376957476138,0.013340543088316916
1638746353032074800,4.34907470703125,-0.03236789964139462,-0.01447647004937753,0.016656754964217542
1638746353042037800,4.359037841796875,-0.002183189257979393,-0.0035280827946029603,0.01677745873443782
1638746353052000800,4.369000732421875,0.013695347875356673,-0.00010989011526107787,-0.0028651071075350043
1638746353061963800,4.3789638671875,0.004049567651748657,-0.021199786955025047,-0.013093217263743281
1638746353071927800,4.388927734375,-0.03982172277867794,-0.03466592918438837,-0.01911116237901151
1638746353081890800,4.398890869140625,-0.11091127500236034,-0.048373570285737515,-0.005904474803432822
1638746353091853800,4.408853759765625,-0.15385376015007496,-0.04015389560880139,-0.007451046658307313
1638746353101816600,4.418816650390625,-0.13691314674317837,-0.02442885027043521,-0.01601195425465703
1638746353111780600,4.428780517578125,-0.025535423272848128,-0.02357321982178837,-0.020520006263628602
1638746353121743600,4.43874365234375,0.01610708519220352,-0.01882513024555519,-0.001224719489365816
1638746353131706600,4.44870654296875,0.021911387556791305,-0.016023005371633915,0.0015831775382161139
1638746353141670700,4.458670654296875,-0.0017564882785081862,-0.024943740990012883,-0.0034568624556064603
1638746353151633700,4.468633544921875,-0.05799100119769573,-0.032555019711330534,0.004637596672773361
1638746353161596700,4.4785966796875,-0.08866495640277862,-0.03067846698341891,0.024067908003553747
1638746353171560000,4.488559814453125,-0.08754384341835975,-0.030297778836451468,0.02020736011788249
1638746353181523700,4.498523681640625,-0.058733928519487374,-0.017473989631235597,-0.007491378668695688
1638746353191486700,4.50848681640625,-0.05095218860208988,-0.010920549399778247,-0.028011823323741553
1638746353201450000,4.518449951171875,-0.049988896527886385,-0.017210041465424,-0.026604879135265946
1638746353211413800,4.528413818359375,-0.0614648147881031,-0.020632563260011373,-0.012639555212110281
1638746353221376800,4.538376708984375,-0.06428513290584087,-0.010047931283712386,-0.02795373646095395
1638746353231339800,4.54833984375,-0.05690788213610649,-0.007350819420535117,-0.019045038340240714
1638746353241302800,4.558302734375,-0.04681961884200573,-0.006755319479107857,-0.008656403860077261
1638746353251266800,4.568266845703125,-0.03955868792831897,-0.008453958356846123,-0.008542495156824589
1638746353261229800,4.578229736328125,-0.04444996710121631,-0.007021203873679042,0.003777838038280606
1638746353271192800,4.58819287109375,-0.0626806203186512,-0.012663776337914169,0.008034984026104211
1638746353281155800,4.59815576171875,-0.05397299772799015,-0.018791575035825372,0.0021101240217685697
1638746353291119900,4.608119873046875,-0.023850246664881704,-0.03193005621340125,0.003996230029314756
1638746353301083000,4.618082763671875,-0.011411620852351189,-0.028306166627816855,-0.0025327333480119705
1638746353311045600,4.628045654296875,-0.027416999235749244,-0.024880356897599994,0.002230243270099163
1638746353321008600,4.638008544921875,-0.03593289864659309,-0.016546280327066776,-0.006384148079156876
1638746353330972700,4.64797265625,-0.03847089269161224,-0.025274799575284123,-0.009546119241416453
1638746353340935700,4.657935791015625,-0.044132571715116496,-0.021001323507167397,-0.001938274586200714
1638746353350898700,4.667898681640625,-0.03003799538910389,-0.014329590658284723,0.002045169026777148
1638746353360861700,4.67786181640625,-0.036753567379713054,-0.013497048824280499,-0.003010945319011807
1638746353370825700,4.68782568359375,-0.058280924054980275,-0.017333777442947028,-0.0029964053370058535
1638746353380788700,4.697788818359375,-0.04631166931986808,-0.025159173838980496,-0.010458923237398266
1638746353390751700,4.707751708984375,-0.04258066609799862,-0.028123941928707062,-0.004095598750561476
1638746353400715800,4.7177158203125,-0.025383447581529616,-0.026566994810290633,-0.009079597708210348
1638746353410678800,4.7276787109375,-0.04154664687514305,-0.024150197725836185,0.003379340239986777
1638746353420641500,4.7376416015625,-0.04142448180019855,-0.03108823509439826,-0.010134586653858423
1638746353430604800,4.747604736328125,-0.04219605069458485,-0.020218392968550325,-0.01188230710402131
1638746353440568600,4.757568603515625,-0.06418284157514571,-0.021181356249190864,-0.009390855614468455
1638746353450531800,4.76753173828125,-0.07715221326351165,-0.025991569542512295,-0.021722586986422536
1638746353460494600,4.77749462890625,-0.0832283183068037,-0.020038104498200118,-0.021285364612936973
1638746353470457600,4.78745751953125,-0.06313479382693767,-0.017146821769792587,-0.007419482476264238
1638746353480421600,4.797421630859375,-0.03871288475394249,-0.01650357369650155,-0.007512421456724405
1638746353490384600,4.807384521484375,-0.022500585621595383,-0.009707556880824267,-0.003008826427161693
1638746353500347600,4.81734765625,-0.028455694633722304,-0.015719017456378787,0.00014949147328734396
1638746353510310700,4.827310546875,-0.03634498657882213,-0.019673655099980532,0.016701397823542356
1638746353520274700,4.837274658203125,-0.04111643876433372,-0.025426117679476737,0.009538155130669475
1638746353530237700,4.84723779296875,-0.05172609558403492,-0.02674757554158568,0.003131137632578611
1638746353540200700,4.85720068359375,-0.03660451429784298,-0.015073431295529007,0.007829451516643167
1638746353550163700,4.867163818359375,-0.025248423025012016,-0.01580032079797238,-0.001934109867736697
1638746353560127700,4.877127685546875,-0.031259061616659166,-0.03441805537054315,-0.012231924259290098
1638746353570090500,4.887090576171875,-0.034251229169964786,-0.024292200012411922,-0.00581643119379878
1638746353580053500,4.897053466796875,-0.043212534260749814,-0.01608743064366281,0.007361322548240423
1638746353590016500,4.9070166015625,-0.041733693879842756,-0.015429989648237824,0.006003259002789855
1638746353599980500,4.91698046875,-0.03098375180661678,-0.01613207350298762,0.000036678748577833174
1638746353609943600,4.926943603515625,-0.04059153810739517,-0.009883351839147507,-0.009150982443988322
1638746353619906600,4.936906494140625,-0.06485562627017498,-0.007494703136943281,-0.012998890043795107
1638746353629869800,4.946869873046875,-0.06815583685934543,-0.005992920271866023,-0.00021437340304255483
1638746353639833600,4.95683349609375,-0.05412731150686741,-0.01660285108620301,-0.006659384823963045
1638746353649796600,4.966796630859375,-0.0312748437076807,-0.019464944252744316,-0.005883651211112738
1638746353659759600,4.976759521484375,-0.03098550537228584,-0.020776757503673433,-0.0107663086861372
1638746353669722600,4.98672265625,-0.05147942734658718,-0.02191905940659344,-0.008903437423706055
1638746353679686700,4.996686767578125,-0.06793547210693358,-0.02071921863015741,0.005986600128933787
1638746353689649700,5.006649658203125,-0.05820902786254883,-0.0266717520927079,0.009853943081572652
1638746353699612700,5.01661279296875,-0.040268297502398485,-0.028680772093869746,0.001012464978173375
1638746353709576700,5.02657666015625,-0.0357797539114952,-0.027848540787119416,-0.006025616965070367
1638746353719539700,5.036539794921875,-0.046400516647100445,-0.0262272049292922,-0.006053308689594268
1638746353729502700,5.046502685546875,-0.054040217745304105,-0.018683383687306196,-0.011998261633887886
1638746353739465700,5.0564658203125,-0.04986322432160377,-0.025181312605552373,-0.008633826702088118
1638746353749429800,5.0664296875,-0.05807400330603122,-0.024388737455755472,-0.022715105155110358
1638746353759392800,5.076392822265625,-0.05999415771365165,-0.010987860748637467,-0.0133559598531574
1638746353769355500,5.08635546875,-0.07134557281136512,-0.015079532242752611,-0.008586334298551082
1638746353779318500,5.096318603515625,-0.059524786636233326,-0.010317615070566534,-0.0004971358671784401
1638746353789282600,5.106282470703125,-0.03706511754691601,-0.01229647739548236,-0.0013557254578918218
1638746353799245600,5.11624560546875,-0.009958499434590339,-0.010424619108997285,-0.004693710774183273
1638746353809208600,5.12620849609375,-0.017877017474174497,-0.009800313198193907,-0.0037706045798957346
1638746353819171600,5.136171630859375,-0.04360065679550171,-0.017255853368528185,-0.0028407763838768003
1638746353829135600,5.146135498046875,-0.05556698892116546,-0.019121647240407765,0.000999240170419216
1638746353839098600,5.1560986328125,-0.0693248806387186,-0.009209946089610456,0.0006426087524741888
1638746353849061600,5.1660615234375,-0.053179217001795766,-0.016305274645425378,0.015589929450303314
1638746353859024600,5.176024658203125,-0.03465104214251041,-0.017286431169882415,0.008170154713094234
1638746353868988400,5.185988525390625,-0.028852584996819496,-0.026430801209993658,0.011882380169257521
1638746353878951400,5.195951416015625,-0.033354572591185565,-0.031690804097428915,-0.0031227351304143666
1638746353888914700,5.205914794921875,-0.03546995730996132,-0.02189710330311209,-0.0038408202718943356
1638746353898877700,5.215877685546875,-0.049857379102706906,-0.012051599256321786,-0.0024565263066440818
1638746353908841700,5.225841796875,-0.05196984121203422,-0.0062695452561601995,-0.001237944297119975
1638746353918804700,5.2358046875,-0.043752047964930534,-0.01343454151470214,-0.000839081172645092
1638746353928767700,5.245767822265625,-0.0476531470566988,-0.019221563950926064,0.004947831665724515
1638746353938730800,5.255730712890625,-0.0464765044927597,-0.022277225194498894,0.007200579028576612
1638746353948694800,5.26569482421875,-0.06714929016530513,-0.01862730611851439,0.004517988881096243
1638746353958657800,5.27565771484375,-0.06342647024989127,-0.015915727338567377,-0.007310396078601479
1638746353968620500,5.28562060546875,-0.05520633891522884,-0.023251568385679273,-0.0064963762819767
1638746353978584600,5.29558447265625,-0.04774257890582084,-0.028321473794803022,-0.006501052457094192
1638746353988547600,5.305547607421875,-0.04894844756424427,-0.026146577441133557,-0.007038885660842061
1638746353998510600,5.315510498046875,-0.04462006297111511,-0.025829967506323007,-0.005750599415972829
1638746354008473600,5.3254736328125,-0.04849018240272999,-0.019748620032332836,-0.008457958678528665
1638746354018437600,5.335437744140625,-0.048317163923382755,-0.023889318299945443,0.00032367899641394613
1638746354028400600,5.345400634765625,-0.05430208355188369,-0.009213051362149416,0.0030083880357444285
1638746354038363600,5.35536376953125,-0.04354220460653305,-0.01417739577125758,-0.013352233526110648
1638746354048326700,5.36532666015625,-0.04206979396641254,-0.01321439595799893,-0.008998349165543913
1638746354058290700,5.375290771484375,-0.04312485597729682,-0.015772190682031215,-0.0034171880323439837
1638746354068253400,5.38525341796875,-0.037733226066827774,-0.01767605154197663,-0.002135185397788882
1638746354078216400,5.395216552734375,-0.03848258312940597,-0.017889548162184656,0.007738266101852059
1638746354088179700,5.4051796875,-0.03995674733519554,-0.01239739875299856,-0.003656915072351694
1638746354098143500,5.4151435546875,-0.05264964016973972,-0.01441922343680635,-0.002816299529746175
1638746354108106500,5.4251064453125,-0.05893266596198082,-0.017367497049458325,-0.002092296104133129
1638746354118069800,5.43506982421875,-0.050848143705725664,-0.01579626567736268,-0.0033107319831848143
1638746354128032800,5.44503271484375,-0.043532267734408374,-0.01396806386951357,-0.011711407516524195
1638746354137996800,5.454996826171875,-0.0374140771150589,-0.012762396140489726,0.0000820522602647543
1638746354147959800,5.464959716796875,-0.03712707686722278,-0.009826360954903066,0.01061813238710165
1638746354157922800,5.4749228515625,-0.029805940198898314,-0.0171499453086406,0.00994162136502564
1638746354167885600,5.484885498046875,-0.04330547324120998,-0.01304258305504918,0.00902202230207622
1638746354177849600,5.494849609375,-0.05770633903741836,-0.007900397861003876,-0.011921543135866523
1638746354187812600,5.5048125,-0.07178513327240943,-0.007371588213928044,-0.013451602247357367
1638746354197775600,5.514775634765625,-0.07359656660854816,-0.0019766155689023433,-0.016143252484127877
1638746354207738600,5.524738525390625,-0.0588157615840435,-0.00924878026265651,-0.0021341624844819305
1638746354217702700,5.53470263671875,-0.023688334101438523,-0.010360668761003762,-0.01143405187986791
1638746354227665700,5.544665771484375,-0.015316811597347258,-0.021774152776878327,-0.01302848146446049
1638746354237628700,5.554628662109375,-0.05270049357414245,-0.027123021257854995,-0.019532091204822064
1638746354247591700,5.564591796875,-0.07000526411831379,-0.02028060801718384,-0.008440349956601858
1638746354257555700,5.5745556640625,-0.08568915546238422,-0.01890668931547552,0.0038924773938953873
1638746354267518500,5.5845185546875,-0.05935819789767265,-0.019940617206785825,0.0030397330220788715
1638746354277481500,5.5944814453125,-0.030178280642628667,-0.011724376595951616,-0.0013256956458091735
1638746354287445500,5.604445556640625,-0.020123335096240043,-0.015575389468297361,-0.0019999416455626488
1638746354297408500,5.614408447265625,-0.028030747219920157,-0.016138247515447436,0.00019705694206058978
1638746354307371500,5.62437158203125,-0.03105038730204105,-0.014978610885236412,0.015945537954941393
1638746354317334500,5.63433447265625,-0.03572363981008529,-0.023861042053531855,0.004074629027768969
1638746354327298600,5.644298583984375,-0.04649637823700904,-0.0211522214862518,-0.004615896297618747
1638746354337261600,5.654261474609375,-0.059791913139820095,-0.024506883942708373,-0.0016693945169448852
1638746354347224800,5.664224853515625,-0.0707283176958561,-0.022691450284887105,0.005189020010456443
1638746354357187800,5.674187744140625,-0.0574345363587141,-0.014246771213039754,0.00477510544732213
1638746354367151600,5.684151611328125,-0.05279693968594074,-0.00883090191045776,-0.014818214425444603
1638746354377114600,5.694114501953125,-0.04050619791150093,-0.01357650726865977,-0.018713833624497054
1638746354387077600,5.70407763671875,-0.04198386924862861,-0.007868979809433222,-0.011517565444856881
1638746354397040600,5.71404052734375,-0.04271101447939873,-0.011544362120237201,-0.0028493250165134666
1638746354407004700,5.724004638671875,-0.06169102475941181,-0.008061214445903896,-0.0007873509854078293
1638746354416967700,5.7339677734375,-0.062274962127208705,-0.001671513408794999,0.001044248355925083
1638746354426930700,5.7439306640625,-0.044918753656744956,-0.01017122886981815,0.01539601431339979
1638746354436893700,5.753893798828125,-0.01697276211082935,-0.013281725573167204,0.005792173535376787
1638746354446857700,5.763857666015625,-0.011612696382403373,-0.02720507351811975,-0.0017450901016592979
1638746354456820700,5.77382080078125,-0.03362053005099296,-0.027325320630613714,-0.008687968042120338
1638746354466783200,5.783783203125,-0.047396541947126385,-0.02712709464477375,-0.009195625303313136
1638746354476746000,5.79374609375,-0.05566343503296375,-0.016020101028494535,-0.004709931256622076
1638746354486710000,5.8037099609375,-0.051665889829397196,-0.010900218997802585,-0.009790376326069236
1638746354496673000,5.813673095703125,-0.03820610427558422,-0.010687653959356247,0.0015044862788170575
1638746354506636000,5.823635986328125,-0.03821779471337795,-0.009416172718815506,0.014161650212854145
1638746354516599300,5.833599365234375,-0.05081482595801353,-0.010185933248605578,0.013771627981960773
1638746354526563000,5.84356298828125,-0.05786883612275123,-0.015950287195295093,-0.003723842828720808
1638746354536526000,5.853526123046875,-0.05638181243538856,-0.01708893583640456,-0.0012638824559748172
1638746354546489300,5.8634892578125,-0.04276712858080864,-0.031045619795378294,-0.003927987098693847
1638746354556452400,5.873452392578125,-0.04444879805743694,-0.023005247208103537,-0.00484970505349338
1638746354566416400,5.88341650390625,-0.04206570231318474,-0.017690956850163638,-0.008809621660411358
1638746354576379100,5.893379150390625,-0.049830491095781325,-0.02623301361557096,-0.0038764030419290063
1638746354586342100,5.903342041015625,-0.05771919851899147,-0.02635214648321271,0.0014583821147680282
1638746354596306200,5.91330615234375,-0.05664718537330627,-0.009174162390176207,0.0011371142711490393
1638746354606269200,5.923269287109375,-0.0563496637314558,-0.00432279510255903,-0.006300342253223061
1638746354616232200,5.933232177734375,-0.038547465059161186,-0.0048467459114268415,-0.0029798925936222074
1638746354626195200,5.9431953125,-0.026424481067061422,-0.011600001297611743,-0.004341682466119528
1638746354636159200,5.9531591796875,-0.03001052286028862,-0.005297795880865305,-0.006311155908182263
1638746354646122200,5.963122314453125,-0.04063187011778355,-0.006224427472800016,-0.00019866437725722788
1638746354656085200,5.973085205078125,-0.04541735082864761,-0.012453604185953735,0.007251067106798291
1638746354666048300,5.98304833984375,-0.05320785857439041,-0.011517857705801725,0.0005894903257489204
1638746354676012300,5.99301220703125,-0.0446639021128416,-0.009357574399374425,0.004992036133632064
1638746354685975000,6.00297509765625,-0.05499591103494167,-0.011489691057242452,-0.005869914946705103
1638746354695938000,6.01293798828125,-0.0464765044927597,-0.014743815748672931,-0.0021980215009301898
1638746354705901000,6.022901123046875,-0.0446902055978775,-0.01388294286932796,-0.009453983978554606
1638746354715865000,6.032864990234375,-0.03485036410689354,-0.014928908258303999,-0.015418518406152725
1638746354725828000,6.042828125,-0.03068447659909725,-0.012784955032169818,0.005252586765959859
1638746354735791000,6.052791015625,-0.03640110068023204,-0.019102065757103263,0.01104161849617958
1638746354745754400,6.06275439453125,-0.04327975427806377,-0.016516396645456552,0.009224339941143989
1638746354755718100,6.07271826171875,-0.04687105676829815,-0.01236000761836767,0.005335442743822932
1638746354765681200,6.08268115234375,-0.06636836892068386,-0.013886523065902292,-0.009834142402559518
1638746354775644200,6.09264404296875,-0.06623042175471783,-0.0076346778632141645,-0.020506123868748543
1638746354785607200,6.102607177734375,-0.05920446864068508,-0.007238938277587294,-0.02358516598790884
1638746354795571200,6.1125712890625,-0.048885903722047805,-0.010495492388121783,-0.02445610360354185
1638746354805534200,6.1225341796875,-0.0426075541049242,-0.012320351461414247,-0.013795154988020657
1638746354815497200,6.132497314453125,-0.056490533506870264,-0.02042290256470442,-0.015434300497174262
1638746354825460200,6.142460205078125,-0.06019347967803478,-0.012769063343293963,0.007571604298055172
1638746354835424300,6.15242431640625,-0.05375321749746799,-0.01726560757756233,0.017509134009853003
1638746354845387300,6.16238720703125,-0.028337621212005615,-0.02440404462274164,0.021689123108237982
1638746354855350300,6.172350341796875,-0.011896189498901366,-0.02694967398494482,0.00807487764507532
1638746354865313300,6.182313232421875,-0.015334931775927542,-0.022788426119647917,0.0037369215060025452
1638746354875277300,6.19227734375,-0.04197451689839363,-0.02413260727021843,-0.0017683248467743396
1638746354885240000,6.202239990234375,-0.05456862553358078,-0.014390819326229393,-0.005137509018927813
1638746354895203000,6.212203125,-0.048614685565233226,-0.01139961988730356,-0.00547375523597002
1638746354905167000,6.2221669921875,-0.056395256438851356,-0.0046592605153098696,-0.012943360464274882
1638746354915130000,6.232130126953125,-0.05951017358899116,-0.004812076456844806,-0.0040214375358074905
1638746354925093000,6.242093017578125,-0.06265139422416686,-0.0022790143152698872,0.00462948643155396
1638746354935056100,6.25205615234375,-0.05831307275891304,-0.0038120325688272712,-0.007048822532966733
1638746354945020200,6.262020263671875,-0.05336334139704704,-0.009462678741663694,0.002878404980525374
1638746354954983200,6.271983154296875,-0.03493219717144966,-0.004923062550649047,-0.004395093153789639
1638746354964946200,6.2819462890625,-0.025493337696790692,-0.014528912622667848,-0.0004677636422216892
1638746354974909200,6.2919091796875,-0.04014963955879211,-0.01626735378783196,0.000033171617239713664
1638746354984873000,6.301873046875,-0.05270224713981151,-0.018098003281094132,0.0006480886451900005
1638746354994836000,6.3118359375,-0.05359539658725261,-0.020414171268977224,0.0021161153711378574
1638746355004799200,6.32179931640625,-0.042400633355975145,-0.01537305356292054,0.011612257990986108
1638746355014762200,6.33176220703125,-0.031363106513023375,-0.011178908075019717,-0.0027829087167978283
1638746355024726300,6.341726318359375,-0.040489246776700016,-0.009626691930647939,-0.014475246206670999
1638746355034689300,6.351689208984375,-0.03570025893449783,-0.011143343571294099,-0.01300261637084186
1638746355044652300,6.36165234375,-0.054417234364151953,-0.0191593671686016,-0.004379603323712945
1638746355054615300,6.371615234375,-0.04889759415984153,-0.011895422313921152,0.0009816314484924077
1638746355064579300,6.381579345703125,-0.048907531031966205,-0.01021470268536359,-0.00045848435722291466
1638746355074542300,6.391542236328125,-0.037220015847682954,-0.01446479787789285,0.00283982653580606
1638746355084505000,6.401505126953125,-0.041838907819986344,-0.01272284958139062,0.007303016489744186
1638746355094468000,6.411468017578125,-0.06457797837257385,-0.010904803841374815,0.003957359323650598
1638746355104432000,6.42143212890625,-0.06741115597188473,-0.000917297508008778,-0.0006258768133819103
1638746355114395100,6.43139501953125,-0.05257540588974952,-0.009109225661493837,0.0012647592388093471
1638746355124358100,6.441358154296875,-0.04389876295924187,-0.013918635237216948,0.0036595454208552835
1638746355134321200,6.451321044921875,-0.034766777476668356,-0.008062675750628114,-0.00866875188499689
1638746355144285200,6.46128515625,-0.054798342636227605,-0.011356858457811175,-0.00975267466418445
1638746355154248200,6.471248291015625,-0.05551788908243179,-0.015622224284708499,-0.010744096854329109
1638746355164211200,6.481211181640625,-0.048293783047795295,-0.019008377857971936,0.00312302739135921
1638746355174174000,6.491174072265625,-0.049319034442305565,-0.022958540255855767,0.012548662058264017
1638746355184138000,6.501137939453125,-0.05305237575173378,-0.009160809718258679,0.012947452117502688
1638746355194101000,6.51110107421875,-0.04854571198225021,-0.003415872858092189,0.0009733020115643739
1638746355204064300,6.521064208984375,-0.030717209824919697,-0.009020834991987794,-0.002503653384000063
1638746355214028000,6.531028076171875,-0.02487082188427448,-0.01529089170480147,-0.0015673223819583654
1638746355223991000,6.540990966796875,-0.030279987451434134,-0.015499876546673477,0.0047369653940200806
1638746355233954300,6.550954345703125,-0.04061491898298263,-0.017189053476322443,-0.012553849690034985
1638746355243917300,6.560917236328125,-0.05002922853827476,-0.018702837306447326,-0.014626125919446347
1638746355253881300,6.57088134765625,-0.04673427864611149,-0.013729944264702499,-0.006723316905647516
1638746355263844400,6.58084423828125,-0.05226911641955375,-0.018339849212951956,0.004159311636537313
1638746355273807400,6.590807373046875,-0.062441550865769385,-0.006502349365036934,0.0005452858578413724
1638746355283770000,6.60077001953125,-0.04819792145788669,-0.008554770116508006,-0.005829363740608095
1638746355293734100,6.610734130859375,-0.04293605540692806,-0.012536588027980178,0.007258227499946952
1638746355303697200,6.620697265625,-0.03904313962161541,-0.009036123892664909,0.0016910218268632888
1638746355313660200,6.63066015625,-0.04460544992387294,-0.012905622269771993,-0.013983444101735949
1638746355323623200,6.640623046875,-0.04593465270102024,-0.010559972459077834,-0.001869739394634962
1638746355333587200,6.650587158203125,-0.04127484419643879,-0.010353197840601205,-0.007865911069512366
1638746355343550200,6.66055029296875,-0.04352642251551151,-0.006279153334721923,0.006401172279193997
1638746355353513200,6.67051318359375,-0.031577626046538354,-0.003557619416341185,0.004633578084781766
1638746355363476200,6.680476318359375,-0.052098436027765274,-0.0012096315180882811,-0.013915858758240937
1638746355373440300,6.690440185546875,-0.07304010176956653,-0.01198167582526803,-0.02240034011751413
1638746355383403000,6.700403076171875,-0.06823007113933563,-0.006562902179546654,-0.011384440584480762
1638746355393366000,6.710365966796875,-0.0557873536735773,-0.006609974457975476,-0.0035030396848917005
1638746355403329000,6.7203291015625,-0.04261573741137981,-0.023870284805912523,0.0013723112665116786
1638746355413293000,6.73029296875,-0.042456162935495374,-0.021215057589393106,-0.00905132146179676
1638746355423256000,6.740256103515625,-0.05259761772155761,-0.025084866493754087,0.005476823975890875
1638746355433219000,6.750218994140625,-0.053771337676048275,-0.028191673402674495,0.013511442675814032
1638746355443182300,6.760182373046875,-0.045243747827410696,-0.02595609637033194,0.01350413615219295
1638746355453146000,6.77014599609375,-0.036574703681468965,-0.017062851547077297,0.007738923688977956
1638746355463110000,6.78010986328125,-0.03105915513038635,-0.02031604465674609,-0.0012613982379436493
1638746355473072600,6.79007275390625,-0.02192600060403347,-0.012158712892606853,-0.005634498755633831
1638746355483036000,6.800035888671875,-0.04257774348855018,-0.004238021162245423,-0.0003566314179450273
1638746355492999700,6.809999755859375,-0.05756254665255546,-0.004202840251009911,-0.0013864128571003675
1638746355502963000,6.819962890625,-0.05787117421030998,-0.0084521134596318,-0.014471154553443192
1638746355512926000,6.829926025390625,-0.06548983252048492,-0.016255334556475282,-0.010064370961859822
1638746355522889700,6.8398896484375,-0.06277355929911137,-0.00577363323168829,-0.010399375069886446
1638746355532853000,6.84985302734375,-0.05665127702653408,-0.010027217289246618,-0.0032752222783863543
1638746355542816000,6.85981591796875,-0.037951252731680866,-0.004074848223477602,-0.012529884292557835
1638746355552779000,6.869779052734375,-0.03107785983085632,0.0035114787196740506,-0.013064794886857271
1638746355562743000,6.879742919921875,-0.030468203499913214,-0.007738156503997742,-0.008660495513305068
1638746355572706000,6.8897060546875,-0.04705751925110817,-0.002843717259634286,-0.00762384594194591
1638746355582668800,6.899668701171875,-0.062170917230844495,0.0009110138976946473,0.0033181115720421076
1638746355592631800,6.9096318359375,-0.057982817891240115,-0.007022354651149362,0.0036334611315280195
1638746355602595800,6.919595947265625,-0.05153846405744552,-0.016776801147311924,0.00010952478908002376
1638746355612558800,6.929558837890625,-0.04239420361518859,-0.015360066217184066,-0.0036029198627918957
1638746355622521900,6.93952197265625,-0.0457096117734909,-0.0194459472913295,-0.004944470664858818
1638746355632484900,6.94948486328125,-0.03196165692806244,-0.018873079306818544,-0.0039119858119636775
1638746355642449000,6.959448974609375,-0.03959200567603111,-0.011929543779231607,-0.006642433689162135
1638746355652412000,6.969411865234375,-0.05574935975074768,-0.017136483038868753,-0.015480843052640556
1638746355662375000,6.979375,-0.0567851325392723,-0.005110438348911703,0.0023695786755532026
1638746355672337700,6.989337646484375,-0.04436462690532207,0.0018061178402043877,-0.0015293284591287374
1638746355682302000,6.999302001953125,-0.04597440018951893,-0.007780808335635811,0.0005692512553185224
1638746355692264700,7.0092646484375,-0.041618543067574496,-0.010357106830738485,0.008043094267323614
1638746355702227700,7.019227783203125,-0.04820084406733512,-0.009618179830629379,0.01237418227419257
1638746355712191000,7.02919091796875,-0.05675415287911892,-0.01704248461248353,-0.004816021979600191
1638746355722154800,7.03915478515625,-0.05168050287663936,-0.011615728589706123,-0.012214826994016766
1638746355732118000,7.049117919921875,-0.050938160076737404,-0.00950383273595944,-0.006029927814006805
1638746355742081000,7.0590810546875,-0.03851239374577999,-0.016180771482922136,-0.007415025496855378
1638746355752044000,7.0690439453125,-0.05063187060654163,-0.011260156617686153,-0.005476970106363296
1638746355762008000,7.079008056640625,-0.05300853661000728,-0.007910809657163918,-0.0033598318219184875
1638746355771971000,7.08897119140625,-0.05836977138221264,-0.010788776246272027,-0.004146817481145262
1638746355781933800,7.098933837890625,-0.05791033717691898,-0.007552552537713199,0.004885653149709106
1638746355791896800,7.108896728515625,-0.051036359754204744,-0.005905753445066511,0.005084390592202544
1638746355801860900,7.11886083984375,-0.04191197305619716,-0.010856909579038619,0.005395721563696861
1638746355811823900,7.128823974609375,-0.033055297383666034,-0.006205467044003307,-0.00317453838288784
1638746355821787000,7.138786865234375,-0.04381692989468574,-0.01450955033507198,-0.0017903174828737974
1638746355831751000,7.1487509765625,-0.03859598037600517,-0.014834727168828249,-0.000026011224091053008
1638746355841714000,7.1587138671875,-0.04354395817220211,-0.012269351926539093,-0.0037078415419906376
1638746355851677000,7.168677001953125,-0.047424598997831344,-0.02097494695689529,-0.006353752940893173
1638746355861640000,7.178639892578125,-0.046644846796989436,-0.016397081114724276,-0.0019650164626538753
1638746355871604000,7.18860400390625,-0.05965104336440563,-0.011391948037501425,0.008848492366075515
1638746355881566700,7.198566650390625,-0.061167877668142315,-0.008429353638552128,0.006326280412077903
1638746355891529700,7.20852978515625,-0.04965338096320629,-0.009608297757431864,0.007134528055042028
1638746355901492700,7.21849267578125,-0.0399321974158287,-0.008700243001803755,-0.010181056144088506
1638746355911456800,7.228456787109375,-0.038138884258270264,-0.01091996487788856,-0.006275280877202749
1638746355921419800,7.238419677734375,-0.04635083228647709,-0.011562153505254536,0.004635039389505982
1638746355931382800,7.2483828125,-0.027346856608986853,-0.007953863347601144,0.017673969182744623
1638746355941346000,7.258345947265625,-0.034545828202366825,-0.007207154899835586,0.006302972601726651
1638746355951309800,7.268309814453125,-0.04282850337922573,0.006915149683319032,0.0028405571881681677
1638746355961272800,7.27827294921875,-0.054237201622128486,0.006449103074148297,-0.01588401702605188
1638746355971236000,7.288236083984375,-0.07501812384426593,-0.006893485840782523,-0.023240298072993753
1638746355981198800,7.29819873046875,-0.06391103889644145,-0.006921542891487479,-0.0093006931129843
1638746355991163000,7.308162841796875,-0.052986909300088876,-0.0041936157649382945,-0.0022985592659562825
1638746356001126000,7.3181259765625,-0.036978023785352705,-0.013030856084637343,-0.004244067310541868
1638746356011089000,7.3280888671875,-0.03936462666094303,-0.01227952626068145,-0.003435015949979424
1638746356021052000,7.338052001953125,-0.05264554851651192,-0.014905710045807062,-0.0019272417355328797
1638746356031016000,7.348015869140625,-0.06221066471934318,-0.01950715769296512,0.015182298497483133
1638746356040979000,7.35797900390625,-0.05401157617270946,-0.016651841327082365,0.016781842648610473
1638746356050942000,7.36794189453125,-0.031442016968131065,-0.017961170359980315,0.008757306951284408
1638746356060905000,7.377905029296875,-0.02682254047393799,-0.0195114137429744,0.0014407733928412199
1638746356070869000,7.387868896484375,-0.028784195935726165,-0.017196633994579314,-0.008139759574830532
1638746356080831700,7.397831787109375,-0.05018412683904171,-0.014204356843419372,-0.0013699001137167214
1638746356090794800,7.407794677734375,-0.06425707585513592,-0.006706073509901761,-0.017496128397807478
1638746356100757800,7.4177578125,-0.06484627391994,-0.01360763305928558,-0.018151158240437507
1638746356110721800,7.4277216796875,-0.057199558559060094,-0.012312296019122003,-0.009437032843753695
1638746356120684800,7.437684814453125,-0.05119710327386856,-0.008942856118641793,-0.003706964759156108
1638746356130647800,7.447647705078125,-0.05252279891967773,-0.00028765783496201037,-0.005223506801947951
1638746356140610800,7.45761083984375,-0.05117606048583984,-0.0041002566593699155,0.004642565108835697
1638746356150574800,7.467574951171875,-0.03531272092163563,-0.0008212897876277565,-0.010484934461489319
1638746356160537900,7.477537841796875,-0.027813305076956747,-0.0003996668420732021,-0.008380655658617616
1638746356170501000,7.487501220703125,-0.035409167033433914,-0.01004281671717763,-0.007617270070686936
1638746356180463900,7.4974638671875,-0.052152212041616436,-0.005229936542734503,0.0037421091377735135
1638746356190428000,7.507427978515625,-0.054558688661456106,-0.01227284079156816,0.014149375253170728
1638746356200391000,7.517390869140625,-0.04514145649671554,-0.013159268237277864,0.0022562544941902157
1638746356210354000,7.52735400390625,-0.03646539808809757,-0.016764270459301768,0.002154693815857172
1638746356220318000,7.53731787109375,-0.03257014421522617,-0.007980477359890938,-0.0026441578332334756
1638746356230281000,7.547281005859375,-0.04560673592090606,-0.0008507533441297709,0.002135185397788882
1638746356240244000,7.557243896484375,-0.0529337178081274,-0.0028450507001951337,0.0014975450813770293
1638746356250207000,7.56720703125,-0.05037760358452797,-0.013587978510744869,0.0015609657064080238
1638746356260171000,7.5771708984375,-0.04571019629538059,-0.01134695811830461,0.0056889323566108934
1638746356270134000,7.587134033203125,-0.04540799847841263,-0.006174651780631393,0.002085208776220679
1638746356280096800,7.5970966796875,-0.053798225682973856,-0.007570490053202957,0.0008322861056774854
1638746356290059800,7.607059814453125,-0.047967035311460494,-0.01188986935596913,0.0014627660289406777
1638746356300023800,7.61702392578125,-0.05663549493551254,-0.012881693404912948,-0.0013232844930142163
1638746356309986800,7.62698681640625,-0.04719605093896389,-0.017463705699238927,0.004276142949238419
1638746356319949800,7.63694970703125,-0.04779401683211326,-0.013713431521318853,0.001124400920048356
1638746356329912800,7.646912841796875,-0.04884381814599037,-0.006749766521155834,-0.007844502955302595
1638746356339876900,7.656876953125,-0.04492752148509025,-0.016976159644313156,-0.011063538067042827
1638746356349840000,7.66683984375,-0.042533319824934,-0.0192622978201136,-0.016168094664439556
1638746356359803000,7.676802978515625,-0.049988896527886385,-0.011504961691610515,-0.007831132017076015
1638746356369766000,7.686765869140625,-0.06491875463426112,-0.006379490170348436,-0.005546747406944632
1638746356379730000,7.69672998046875,-0.048889410853385926,0.0007859079469926655,0.0017893676348030565
1638746356389692700,7.706692626953125,-0.055467620199918743,-0.00602415566034615,0.010129983543977141
1638746356399656000,7.716656005859375,-0.036624972563982006,-0.009084018155001103,0.002901274399459362
1638746356409619000,7.726618896484375,-0.029306173983216284,-0.01303589758593589,-0.00356068815626204
1638746356419582700,7.736582763671875,-0.03723053724169731,-0.013071699551679193,-0.005426408962905406
1638746356429546000,7.7465458984375,-0.03125438544154167,-0.007389945854526013,-0.0031021307338029145
1638746356439509000,7.756509033203125,-0.03651157531738281,-0.009188464910164475,-0.0072572776518762105
1638746356449472000,7.766471923828125,-0.05552139621376991,-0.014682678412273525,-0.009462824872136115
1638746356459436000,7.77643603515625,-0.04938742350339889,-0.015619265142641961,-0.008571648186072707
1638746356469398000,7.78639794921875,-0.044595513051748276,-0.006546024109981953,0.0030594606358557938
1638746356479361000,7.796361083984375,-0.06270107858479022,-0.0037482466176152226,-0.003522109711542725
1638746356489324000,7.806323974609375,-0.06151099201738834,-0.008004917681403458,-0.001960559483245015
1638746356499288000,7.8162880859375,-0.04012508963942527,-0.01012788291843608,-0.0008032792069017886
1638746356509251000,7.8262509765625,-0.037734395110607145,-0.02185052421502769,-0.01408734286762774
1638746356519213800,7.8362138671875,-0.04700549680292606,-0.018134937757998702,0.006363032225891948
1638746356529176800,7.8461767578125,-0.045969139492511746,-0.007351732735987752,0.009300181656330824
1638746356539140900,7.856140869140625,-0.03687280984520912,-0.009730462832376361,0.00957768342345953
1638746356549103900,7.866103759765625,-0.04198796090185642,-0.00030694705732166766,0.002468947396799922
1638746356559067100,7.876067138671875,-0.04367722916305065,0.0031058387945406135,-0.01439640881679952
1638746356569031000,7.886031005859375,-0.0704664518892765,0.0054908707675524054,-0.019449016031250356
1638746356578994000,7.895993896484375,-0.08452771046757697,0.0012851627060212194,-0.01604388376288116
1638746356588957200,7.905957275390625,-0.06343582260012626,-0.00534994619321078,0.0013571136973798273
1638746356598920200,7.915920166015625,-0.047132922574877736,-0.011215422426816075,0.0014041677094995975
1638746356608884200,7.92588427734375,-0.02828501424193382,-0.011815087086707353,-0.010986235047131776
1638746356618847000,7.935846923828125,-0.0427729737997055,-0.013896752198971808,0.0026830285388976336
1638746356628810000,7.94581005859375,-0.059821139234304425,-0.01900185678564012,0.013800269554555416
1638746356638773000,7.95577294921875,-0.052031800532341,-0.017629399388656018,0.013130626664683223
1638746356648737000,7.965737060546875,-0.04635843107104301,-0.027339623150601983,0.0024821722045540806
1638746356658699000,7.975698974609375,-0.046378889337182046,-0.02740746422242373,0.0026586247500032184
1638746356668663000,7.9856630859375,-0.023652093744277954,-0.01817380846366286,-0.008279314175993204
1638746356678626000,7.9956259765625,-0.024265841728448867,-0.016393427852913735,-0.01069631218984723
1638746356688589000,8.005589111328124,-0.050614334949851035,-0.017269626165553928,-0.01149528054781258
1638746356698551800,8.0155517578125,-0.060789692005515095,-0.011695935952756554,-0.006537658140435815
1638746356708516000,8.02551611328125,-0.06497779134511947,-0.010270561058446764,-0.011333221853896975
1638746356718478800,8.035478759765626,-0.0666191288113594,-0.010822203591838478,-0.014050152662396431
1638746356728441900,8.04544189453125,-0.06707037971019744,-0.012308734088856726,-0.009519304299727081
1638746356738404900,8.05540478515625,-0.05899170267283916,-0.0028021248739212748,-0.008599778302013873
1638746356748369000,8.065368896484374,-0.050015200012922284,0.0030852343979291615,-0.002006444451585412
1638746356758332000,8.075331787109375,-0.04282616529166698,-0.00042430809298530216,-0.004315013654902577
1638746356768295200,8.085295166015625,-0.043561493828892704,-0.0012226005975157022,-0.004418547094613314
1638746356778258200,8.095258056640626,-0.04041267440915108,0.000861366069689393,-0.015368249523639677
1638746356788222000,8.105221923828125,-0.05179331560134887,0.0015872326588258147,-0.0010850187577307224
1638746356798185200,8.115185302734375,-0.061823711228370666,-0.007523783100955188,-0.0017944822013378143
1638746356808148000,8.12514794921875,-0.05989361994862556,-0.010060023580305277,0.00533880374468863
1638746356818112000,8.135112060546875,-0.04389408678412437,-0.009305880744755267,0.013366188986226915
1638746356828075000,8.145074951171875,-0.029707155999541282,-0.01562006886024028,0.010913315941393375
1638746356838038000,8.1550380859375,-0.0349433030873537,-0.01896002693790942,0.0005862754553556442
1638746356848001000,8.1650009765625,-0.04511573753356933,-0.010724113512225448,-0.006300269187986851
1638746356857965000,8.174965087890625,-0.053795887595415114,-0.012545118394307792,-0.010606588079780339
1638746356867928000,8.184927978515624,-0.056954059365391725,-0.005413768677040934,-0.002538724697381258
1638746356877891000,8.19489111328125,-0.05054068519175052,-0.0033383506424725052,-0.0001381663616746664
1638746356887854000,8.20485400390625,-0.035894904723763464,-0.01163549273610115,-0.0034175533585250376
1638746356897818000,8.214818115234374,-0.04965922618210315,-0.010931837978772818,0.0064221420019865035
1638746356907781000,8.224781005859375,-0.06209492938518524,-0.007992752319574355,-0.0022886954590678214
1638746356917743900,8.234743896484375,-0.060627194920182224,-0.008243110351450741,0.0030067075353115797
1638746356927707000,8.244706787109376,-0.05823883847892284,-0.013540084248408675,-0.008630904092639684
1638746356937671000,8.2546708984375,-0.03699614396393299,-0.01462627204991877,-0.017128317998722196
1638746356947634000,8.264634033203125,-0.045075990045070645,-0.0049673035511747,-0.008613879892602563
1638746356957597000,8.274596923828126,-0.05000526314079761,-0.010038359737768768,-0.01108509231172502
1638746356967560000,8.284559814453125,-0.0630120442301035,-0.013277999246120453,-0.012534049011021852
1638746356977524000,8.29452392578125,-0.049527124235033984,-0.005595445386879146,-0.0036635640088468788
1638746356987487000,8.304487060546874,-0.0490600912451744,-0.009889233590662478,-0.008417115211486815
1638746356997450200,8.3144501953125,-0.046809681969881056,-0.004860737904161214,-0.003986366222426295
1638746357007413000,8.3244130859375,-0.04665010749399662,-0.006741729345172643,0.0002622311327606439
1638746357017377000,8.334376953125,-0.04561082757413387,-0.006532214780338108,0.002115530849248171
1638746357027340000,8.344340087890625,-0.032007834157347675,-0.004688450077176094,0.005341872484609485
1638746357037303000,8.354302978515625,-0.03694236795008182,-0.002945405802130699,0.0023057196591049433
1638746357047266000,8.36426611328125,-0.04114917199015617,-0.002654167770594358,0.0009296090003103018
1638746357057230000,8.37422998046875,-0.04387304399609566,-0.0032319493922404944,-0.000017097265273332596
1638746357067193000,8.384193115234375,-0.0446510426312685,-0.015172909614630043,0.0023179215535521504
1638746357077156000,8.394156005859376,-0.0355360082834959,-0.008225465096905827,0.001512961846217513
1638746357087119000,8.404119140625,-0.0457359152585268,-0.009970336002856493,-0.004425488292053342
1638746357097083100,8.414083251953125,-0.059230772125720976,-0.009952343688439577,-0.006422288132458925
1638746357107046000,8.4240458984375,-0.06701485013067722,-0.012292970264144241,0.000047054012119770045
1638746357117010200,8.43401025390625,-0.06028875674605369,-0.011507117116078734,-0.008254398930445312
1638746357126973000,8.443972900390625,-0.05505494774580001,-0.0037028365733101963,-0.010005115055292843
1638746357136937000,8.45393701171875,-0.036791561302542686,-0.005532481419574469,-0.011103358620777725
1638746357146900000,8.46389990234375,-0.04233516690433025,-0.005383556201867759,-0.013595175436511635
1638746357156863000,8.473863037109375,-0.04889876320362091,-0.010004512267094106,-0.013911401778832077
1638746357166826000,8.483825927734374,-0.04649111754000187,-0.01107935669068247,0.0025905279498547313
1638746357176790000,8.4937900390625,-0.040372926920652384,0.0016230711571872233,0.007519435719400644
1638746357186753000,8.5037529296875,-0.03785305305421352,-0.002549647950194776,0.0032483342714607713
1638746357196716000,8.513716064453124,-0.049990650093555446,-0.001026566568762064,-0.014723521879315376
1638746357206679000,8.523678955078125,-0.04983925892412662,-0.007803403759934008,-0.018772651139646768
1638746357216643000,8.53364306640625,-0.061953475087881085,-0.0007388356685638427,-0.024366671754419804
1638746357226605800,8.543605712890624,-0.05821195047199726,0.0012370857805944979,-0.008212459484860301
1638746357236568800,8.55356884765625,-0.030087095227837563,-0.006256576176732778,-0.0033873774159699677
1638746357246531800,8.56353173828125,-0.03801671918332577,-0.006019187224283814,-0.0028328853383660316
1638746357256495900,8.573495849609374,-0.04937573306560516,-0.014957805559225379,0.0015394845269620417
1638746357266459000,8.583458984375,-0.06821954974532127,-0.0185595563782379,0.012677622200176118
1638746357276422100,8.593422119140625,-0.046406946387887,-0.017875446571595965,0.019831585608050227
1638746357286385200,8.60338525390625,-0.028330606949329373,-0.013646394167095422,0.011241086591035126
1638746357296349000,8.613348876953125,-0.02730827816426754,-0.012182057235576211,-0.0041328620210289956
1638746357306312200,8.623312255859375,-0.03120645464658737,-0.017068989026919005,-0.005147007499635219
1638746357316275200,8.633275146484374,-0.04528466435968875,-0.012953005075454712,-0.0029382454089820383
1638746357326238000,8.643238037109375,-0.0632686493396759,-0.011882964691147208,-0.01137369999475777
1638746357336202000,8.653201904296875,-0.06673077249228954,-0.0059078723369166255,-0.012678133656829595
1638746357346165000,8.6631650390625,-0.06267945127487182,-0.009380352486763149,-0.008423764147982
1638746357356128000,8.6731279296875,-0.054580315971374506,-0.005760591087024659,-0.009009382016211747
1638746357366091000,8.683091064453125,-0.05292670354545116,-0.000422645858861506,-0.005944806813821197
1638746357376055000,8.693054931640624,-0.04424772252738476,0.0030812340762466192,0.0007789484832435846
1638746357386018000,8.70301806640625,-0.04231061698496341,0.006613737317640334,-0.0049797611739486455
1638746357395981000,8.71298095703125,-0.03722878367602825,0.0020827245581895113,-0.0058254912830889224
1638746357405945000,8.722945068359374,-0.03678045538663864,-0.0031383162920363247,-0.010886354869231582
1638746357415908000,8.732908203125,-0.039028526574373244,-0.003700936877168715,-0.00892170373275876
1638746357425870800,8.742870849609375,-0.054745735666155815,-0.008361658697202802,-0.0010705518409609793
1638746357435833900,8.752833740234376,-0.06836275760829448,-0.010207834553159772,0.00043305765502154827
1638746357445798000,8.7627978515625,-0.05432897155880928,-0.014393011283315717,0.003688625384867191
1638746357455761000,8.772760986328125,-0.03534662319123745,-0.013265030166693031,0.0011596914291381836
1638746357465724400,8.782724365234374,-0.022321721923351287,-0.013165350918192415,-0.00830912479236722
1638746357475687200,8.792687255859375,-0.033993455016613,-0.010708477551676332,-0.009494169858470559
1638746357485651500,8.8026513671875,-0.035657004314661025,-0.013482527108583598,0.0017353724252432584
1638746357495614200,8.8126142578125,-0.04675649047791958,-0.011569514827802777,-0.004160699876025319
1638746357505577200,8.8225771484375,-0.054545829179883,-0.005833017002418637,-0.007372501529380679
1638746357515540500,8.83254052734375,-0.04211304858624935,-0.009434585158340633,-0.005358166032284498
1638746357525504300,8.842504150390624,-0.046749476215243335,-0.013663162638805806,-0.005243892002850771
1638746357535467300,8.85246728515625,-0.05738076034486293,-0.0005664017111063003,0.00019084639698266982
1638746357545430500,8.862430419921875,-0.051555415192246434,-0.0017388430239632725,-0.0013954729463905096
1638746357555393500,8.8723935546875,-0.053202013355493544,-0.0016503610229119657,0.0017374182518571613
1638746357565357600,8.882357666015626,-0.03944645972549915,-0.009095836456958203,0.005397255933657288
1638746357575320600,8.892320556640625,-0.030178280642628667,-0.009127291041146963,-0.00217405610345304
1638746357585283300,8.902283447265624,-0.03780512225925922,-0.012443064525630324,-0.0052237259976565835
1638746357595246300,8.912246337890625,-0.045127427971363064,-0.021564674744661897,-0.011143252239748835
1638746357605210400,8.92221044921875,-0.04916530518531799,-0.01864467737842351,-0.006387947471439838
1638746357615173400,8.93217333984375,-0.06384031174778938,-0.006492631688620895,0.003872019127756357
1638746357625136400,8.942136474609375,-0.05667231981456279,-0.004390197782963514,0.0023626374781131744
1638746357635099400,8.952099365234375,-0.03812017955780029,-0.004816277707926929,-0.01196048690676689
1638746357645063400,8.9620634765625,-0.034359365719556806,0.0003974931512959301,-0.015129983788356184
1638746357655026400,8.9720263671875,-0.031817864543199535,0.000666738546732813,-0.005080079743266105
1638746357664989400,8.981989501953125,-0.04169219282567501,-0.007857252839021384,-0.00043934126533567904
1638746357674952200,8.9919521484375,-0.04093815958797931,-0.015549433043133467,-0.002847571450844407
1638746357684916500,9.00191650390625,-0.042128830677270884,-0.012701149206236004,-0.005577069479972124
1638746357694879200,9.011879150390625,-0.0552776505857706,-0.009697272948827594,-0.00825505651757121
1638746357704842200,9.02184228515625,-0.04257657444477081,-0.008145696125272661,0.005225552628561854
1638746357714805200,9.03180517578125,-0.04303776221573353,-0.008100121684186161,-0.0008170154713094234
1638746357724769300,9.041769287109375,-0.041381227180361746,-0.009561499473638832,-0.004776712882518768
1638746357734732300,9.051732177734374,-0.04347849172055721,-0.011420096419751644,-0.003102715255692601
1638746357744695600,9.061695556640625,-0.045296939319372176,-0.013564195776358246,-0.0029311580810695887
1638746357754659300,9.071659423828125,-0.046203532770276064,-0.009317278921604156,-0.009302958135306835
1638746357764622300,9.081622314453124,-0.04530746071338653,-0.011246603016369044,-0.010338730923831462
1638746357774585600,9.091585693359375,-0.05683832403123378,-0.014427552873734383,-0.007136646946892142
1638746357784548400,9.10154833984375,-0.059684945634007454,-0.01615128966011107,-0.0009630728784948587
1638746357794512400,9.111512451171874,-0.05518529612720012,-0.014668649886921048,-0.0013277414724230765
1638746357804475400,9.121475341796875,-0.050533086407184596,-0.008888952240627258,0.00233742997162044
1638746357814438400,9.1314384765625,-0.06607961510717869,-0.01069340784670785,-0.004331818659231067
1638746357824401400,9.1414013671875,-0.04676584282815456,-0.004134469456225634,-0.006811506645753979
1638746357834365400,9.151365478515626,-0.029392683222889897,0.001469378432817757,-0.014127017290890217
1638746357844328400,9.161328369140625,-0.03551730358302593,-0.004633833813108504,-0.015116539784893393
1638746357854291500,9.17129150390625,-0.03534253153800964,-0.012062778237462043,-0.0024625176560133695
1638746357864254500,9.18125439453125,-0.0323246450215578,-0.003166172413341701,0.011517127053439616
1638746357874218500,9.191218505859375,-0.032653730845451354,-0.007345248196274042,-0.001580693320184946
1638746357884181500,9.201181396484374,-0.044189854860305786,-0.0053759208846837275,0.00032579788826406003
1638746357894144300,9.211144287109375,-0.06036766720116138,-0.0033516667817719277,-0.016728651156648993
1638746357904107300,9.221107177734375,-0.05586684865057468,0.0024417671289294956,-0.021312837141752243
1638746357914071300,9.2310712890625,-0.06318506270945072,0.002209456210397184,-0.02145911374464631
1638746357924034300,9.241034423828125,-0.040003509086370466,-0.00912369257826358,-0.012255597395822404
1638746357933997300,9.250997314453125,-0.03729892630279064,-0.00578800881691277,-0.011327011308819055
1638746357943960300,9.260960205078124,-0.047447979873418804,-0.007167809270136058,-0.010212912587076425
1638746357953924400,9.27092431640625,-0.05789689317345619,-0.01395604463815689,0.0006335486631840467
1638746357963887400,9.280887451171875,-0.055336102774739264,-0.018047734398581088,0.020059622210264205
1638746357973850400,9.290850341796874,-0.03529986144006252,-0.02163996847057715,0.01704633880369365
1638746357983813400,9.3008134765625,-0.026473580905795095,-0.023473613638523964,0.007644742599502205
1638746357993777200,9.310777099609375,-0.0215150817155838,-0.024470059063658116,-0.010640709545090794
1638746358003740400,9.320740478515624,-0.027914427363872528,-0.015671488520223646,-0.016286679542809723
1638746358013703400,9.330703369140625,-0.05034603940248489,-0.011678528160229325,-0.006801569773629308
1638746358023666400,9.34066650390625,-0.0633557431012392,-0.004875752810202538,-0.00747822692617774
1638746358033630500,9.35063037109375,-0.07353636085391044,-0.005390022475272416,-0.014458879593759775
1638746358043593500,9.360593505859375,-0.051071431067585944,-0.010453607741463929,-0.015045885701477527
1638746358053556500,9.370556396484375,-0.057336336681246755,-0.005562712161056697,-0.0008421499125659466
1638746358063519500,9.38051953125,-0.04086860148310661,-0.0022596337613649663,0.0038655163217335936
1638746358073483500,9.3904833984375,-0.03756546828448772,0.0022146803747862577,-0.004607420730218291
1638746358083446300,9.4004462890625,-0.037113632863759995,-0.0035258725712075827,-0.005990472586452961
1638746358093409300,9.4104091796875,-0.03606558511555195,-0.00207731773070991,-0.0069089756708592175
1638746358103373300,9.420373291015625,-0.035167759492993354,0.004385886934027076,-0.0012263269245624542
1638746358113336300,9.43033642578125,-0.04189385287761688,-0.0014542539289221167,-0.003833659878745675
1638746358123299300,9.44029931640625,-0.05581073454916477,-0.001567833838611841,-0.0009879881240427494
1638746358133262300,9.450262451171875,-0.057009004423022265,-0.00892616071216762,-0.0039669308695942165
1638746358143226400,9.460226318359375,-0.039083471632003784,-0.01643657287489623,0.0003286474324762821
1638746358153189400,9.470189453125,-0.04284837712347507,-0.023482144004851577,-0.015608488020300864
1638746358163152400,9.48015234375,-0.050336687052249904,-0.019644502070732414,-0.013752557955309748
1638746358173115400,9.490115478515625,-0.05929273144602775,-0.013421499370038508,-0.022757409926876426
1638746358183079400,9.500079345703124,-0.06765548612177372,-0.010114548512827604,-0.018062310913205145
1638746358193042200,9.510042236328125,-0.07046119119226932,-0.00501611112896353,-0.018180968856811523
1638746358203005400,9.52000537109375,-0.06159165603816509,-0.001244154842197895,-0.009350012147426605
1638746358212968400,9.529968505859374,-0.04435995073020458,-0.003790807117708027,0.0066190528135746714
1638746358222932200,9.53993212890625,-0.028060557836294173,-0.012379698699526489,0.007573796255141496
1638746358232895500,9.5498955078125,-0.034629999354481696,-0.012394530942477285,0.0005726853214204311
1638746358242858500,9.5598583984375,-0.04550619815587997,-0.010715290884952992,0.010055164742097259
1638746358252821500,9.569821533203125,-0.05208908367753028,-0.0073129716281779104,0.0181106070343405
1638746358262785500,9.57978564453125,-0.056928924924135205,-0.008397679858654737,0.0068657941162586205
1638746358272748500,9.58974853515625,-0.04095920237600803,-0.009936214537546038,-0.01108867250829935
1638746358282711300,9.599711181640625,-0.03571662554740906,-0.018007402388192713,-0.02220554819777608
1638746358292674300,9.60967431640625,-0.0331570041924715,-0.009178692434821277,-0.010959420105442404
1638746358302638300,9.619638427734374,-0.04916413614153862,-0.008595577050931752,-0.007101794829219579
1638746358312601300,9.629601318359375,-0.05439969870746136,-0.011615326730906962,-0.011154504286125301
1638746358322564400,9.639564453125,-0.055587447187304496,-0.009693108230363578,-0.0018193974468857048
1638746358332527400,9.64952734375,-0.049127895784378046,-0.010665971850510686,-0.0006892243731766939
1638746358342491400,9.659491455078125,-0.042238720792531964,-0.009922222544811666,-0.001062879991158843
1638746358352454400,9.669454345703125,-0.050775078469514845,-0.00582750057708472,-0.0074463704831898205
1638746358362417400,9.67941748046875,-0.03745616269111633,-0.0024657325264066457,-0.006844678262993693
1638746358372380400,9.68938037109375,-0.03668868544995785,-0.009858765387162566,-0.011334756223857403
1638746358382344400,9.699344482421875,-0.037704584494233126,-0.009245364462863653,-0.011422945963963866
1638746358392307200,9.70930712890625,-0.05130114817023277,-0.008991955957375466,-0.010688494209572671
1638746358402270200,9.719270263671875,-0.053530514657497405,-0.0014656155731528997,-0.006310425255820155
1638746358412233500,9.7292333984375,-0.06142389825582504,-0.0014367548048496246,-0.006750716369226574
1638746358422197200,9.739197265625,-0.06185118375718593,-0.003153824388422072,-0.0048247898079454895
1638746358432160300,9.74916015625,-0.04943593882024288,-0.00825282802786678,-0.002857873649150133
1638746358442123500,9.75912353515625,-0.0419540586322546,-0.008424275604635477,-0.0039010990917682647
1638746358452086500,9.76908642578125,-0.032386019819974896,-0.011709873146563767,-0.005499035807698964
1638746358462050300,9.77905029296875,-0.03282207314968109,-0.01267784139588475,-0.006641556906327605
1638746358472013300,9.789013427734375,-0.03999591030180454,-0.015632435151468962,-0.005221753236278891
1638746358481976300,9.798976318359376,-0.041940614628791804,-0.017165763932280243,-0.008214870637655258
1638746358491939300,9.808939208984375,-0.04614800319075584,-0.015555881050229071,-0.006591653349995613
1638746358501903400,9.8189033203125,-0.04765606966614723,-0.011758753789588808,-0.00725187082439661
1638746358511866400,9.828866455078124,-0.04974398185610771,-0.014103965208865702,0.00018843524418771265
1638746358521829400,9.838829345703125,-0.03866729204654693,-0.009740509302355349,-0.004909837742894887
1638746358531792100,9.848792236328125,-0.04944295308291912,-0.012284567761979996,-0.013403525321930647
1638746358541756200,9.858756103515624,-0.06183306357860565,-0.012268639540486037,-0.00016315467245876789
1638746358551719200,9.86871923828125,-0.06450783574581145,-0.010871193832717835,-0.002547346395254135
1638746358561682200,9.87868212890625,-0.053285015463829036,-0.0030921938616782427,-0.00239865863956511
1638746358571646200,9.888646240234374,-0.04371873021721839,-0.006461195370741188,-0.012326543740183115
1638746358581609200,9.898609130859375,-0.05060381355583667,-0.01297547263558954,-0.018906798913329838
1638746358591572200,9.908572265625,-0.04068038543462753,-0.009327270592655985,-0.00925371216610074
1638746358601535200,9.91853515625,-0.04784837736785411,-0.00641057942835614,0.008273249761387705
1638746358611499300,9.928499267578125,-0.04085749556720256,-0.005509885995276272,0.003529197039455175
1638746358621462300,9.938462158203125,-0.03521569028794765,0.0020128741923719643,-0.00763356361836195
1638746358631425000,9.948425048828126,-0.048206104764342304,0.00010417276052758097,-0.03257964269593358
1638746358641388300,9.95838818359375,-0.0683709409147501,-0.0006989785822108387,-0.023767390687018632
1638746358651352000,9.96835205078125,-0.0668459233045578,0.0003911182094365358,-0.009342121101915835
1638746358661315300,9.9783154296875,-0.05024082546234131,-0.004639057977497577,-0.0052947454072535035
1638746358671278300,9.9882783203125,-0.03901332900524139,-0.013178228666074572,-0.007898717360571026
1638746358681241300,9.998241455078125,-0.034033202505111694,-0.019991361013334243,-0.005708367709442973
1638746358691205400,10.008205322265624,-0.040328503257036206,-0.030033666273858395,0.00959996832050383
1638746358701168400,10.01816845703125,-0.04123451218605041,-0.028764614452421663,0.012795111100003122
1638746358711131400,10.02813134765625,-0.044081718310713766,-0.021238237535580993,0.007438479437679052
1638746358721094400,10.038094482421876,-0.02956511718034744,-0.02045026549566537,0.0020282178919762374
1638746358731058400,10.048058349609375,-0.026008301481604573,-0.0194722507763654,0.0039472763210535045
1638746358741021200,10.058021240234375,-0.039514848786592484,-0.016235132018662987,-0.0006831599585711955
1638746358750984200,10.067984130859376,-0.050154900744557376,-0.008914707736391574,-0.0023207710977643727
1638746358760947200,10.077947265625,-0.05718319194614887,-0.015562895312905311,-0.01372428170889616
1638746358770911200,10.0879111328125,-0.05988017594516277,-0.008749671634100377,-0.012960457729548215
1638746358780874200,10.097874267578124,-0.06823240922689437,-0.0037855098880827426,-0.010346037447452544
1638746358790837200,10.107837158203125,-0.06461655681729317,-0.0025149054303765296,-0.004554302303493023
1638746358800800300,10.11780029296875,-0.05694996771216392,-0.004748253973014652,-0.009927958165854215
1638746358810764300,10.127764404296874,-0.04989186589419842,-0.0012949534476734696,0.0016848843470215796
1638746358820727300,10.137727294921875,-0.0392483068048954,0.007408449625596404,0.0013683657437562943
1638746358830690000,10.14768994140625,-0.027724457749724388,0.001949636230431497,-0.004511924466490745
1638746358840653000,10.157653076171876,-0.03907002762854099,-0.004494644538126886,-0.008473229312896728
1638746358850617000,10.1676171875,-0.04726210191249847,-0.00542271916847676,0.0010934943251311778
1638746358860580000,10.177580078125,-0.062357379713654515,-0.010184070085082203,0.012486556607484817
1638746358870543400,10.18754345703125,-0.06086918698251247,-0.0039806306013837455,0.007003449021279811
1638746358880506400,10.19750634765625,-0.04186638034880161,-0.00750003689918667,0.00027158348299562927
1638746358890470100,10.20747021484375,-0.030333178943395614,-0.007964987529814243,0.005719108299165963
1638746358900433400,10.217433349609376,-0.031387656432390214,-0.012125395144894718,-0.008896130900084972
1638746358910396400,10.227396484375,-0.04217968408167362,-0.004915098439902067,-0.009048618048056959
1638746358920359400,10.237359375,-0.047266778087615965,-0.004135638500005007,-0.0021750059515237806
1638746358930323500,10.247323486328124,-0.053689504611492155,-0.0036696649560704823,-0.006033434945344925
1638746358940286200,10.2572861328125,-0.0637175621509552,-0.004984327751211822,0.004303980804234743
1638746358950249200,10.267249267578125,-0.04921908119916916,-0.0053583304290659725,0.0014379969138652085
1638746358960212200,10.277212158203126,-0.04890636198818683,-0.007528422743454575,-0.00988835680782795
1638746358970176300,10.28717626953125,-0.057418169745802876,-0.014934132422693073,-0.006278349617123604
1638746358980139300,10.29713916015625,-0.061304071268439286,-0.017955416472628712,0.006383198231086134
1638746358990102300,10.307102294921876,-0.0599573328346014,-0.012911723216995597,0.002477057638019323
1638746359000066300,10.31706640625,-0.05441022010147571,-0.01573503700941801,-0.007341010412573814
1638746359010029300,10.327029296875,-0.05124035789370537,-0.01590394556922838,-0.003669993749633431
1638746359019992300,10.336992431640626,-0.042993338552117344,-0.013105638353899121,-0.0059216451339423656
1638746359029955000,10.346955078125,-0.04252689008414745,-0.009758757345099001,-0.007719269140437245
1638746359039919000,10.356919189453125,-0.05238076010048389,-0.0064405544415116305,-0.011477014238759875
1638746359049882000,10.366882080078126,-0.04651683650314808,-0.008573255621269345,-0.004093406793475151
1638746359059845000,10.37684521484375,-0.04767769697606563,-0.006821151256933808,-0.0040645460251718755
1638746359069808000,10.38680810546875,-0.04077273989319801,-0.0010762143967673183,-0.001240793841332197
1638746359079772200,10.396772216796874,-0.030898996132612228,-0.007015084660146385,0.0016195640258491039
1638746359089735200,10.406735107421875,-0.03644201721251011,-0.003050364013947546,0.00031381518952548504
1638746359099698400,10.416698486328125,-0.034625323179364204,-0.009711538936197757,-0.010622224040329456
1638746359109661400,10.426661376953126,-0.03865969326198101,-0.0059171516219154,-0.006809460819140076
1638746359119625200,10.436625244140625,-0.04809387656152248,-0.011017634832393377,-0.006598740677908063
1638746359129588500,10.44658837890625,-0.053928574064373964,-0.007616904744505882,-0.0018167670983821153
1638746359139551200,10.45655126953125,-0.04796002104878425,-0.005439012716151773,-0.0070548869475722305
1638746359149514200,10.46651416015625,-0.049474517264962194,-0.003957432388886809,-0.0024130524910986424
1638746359159478300,10.476478271484375,-0.04348901311457157,0.006438015424553305,-0.009303834918141364
1638746359169441300,10.486441162109376,-0.04587736955583095,-0.011176113329734652,-0.012029898881167173
1638746359179404300,10.496404296875,-0.046616789746284484,-0.002873144283518195,-0.0002747252881526947
1638746359189367300,10.5063671875,-0.054702481046319,-0.0014030717309564352,0.0006734422821551561
1638746359199331300,10.516331298828124,-0.056201195171475406,-0.016605463168397543,-0.012508841504529118
1638746359209294300,10.52629443359375,-0.05497077659368515,-0.010896912795864045,-0.01533018253557384
1638746359219257300,10.53625732421875,-0.05715805750489235,-0.015259747647866606,-0.005880509405955672
1638746359229220000,10.54622021484375,-0.064005146920681,-0.015672310504131017,0.013590718457102774
1638746359239184100,10.55618408203125,-0.06696575029194354,-0.01553279243558645,0.0053955754332244395
1638746359249147100,10.566147216796875,-0.05005728558897972,-0.017340134118497372,-0.0023574498463422057
1638746359259110100,10.576110107421876,-0.0297018953025341,-0.012415683328360318,0.0009194529324769973
1638746359269073200,10.5860732421875,-0.017111293798685073,-0.012788900554925202,-0.005654518630355597
1638746359279037200,10.596037109375,-0.031164369070529937,-0.012230663883965463,-0.010264058252424001
1638746359289000200,10.606000244140626,-0.04297521837353706,-0.008018507815338671,-0.006316781931370496
1638746359298963200,10.615963134765625,-0.045698505857586856,-0.009420045176334678,0.009521203995868564
1638746359308926500,10.625926513671875,-0.03870060979425907,-0.006070387688558549,0.0075601330559700725
1638746359318890200,10.63589013671875,-0.03097147684693336,0.008131284007430076,-0.00695011139884591
1638746359328853200,10.645853271484375,-0.04551905763745308,0.011809278400428593,-0.023455255997925997
1638746359338816300,10.655816162109375,-0.05762976666986942,0.0035312245997600254,-0.01501775558553636
1638746359348779300,10.665779296875,-0.07211947979331017,-0.0009174071058630943,-0.01670994645617902
1638746359358743300,10.675743408203125,-0.0625450112402439,-0.000841930716857314,-0.00830028389878571
1638746359368706300,10.685706298828125,-0.05372106879353523,-0.009091616939567029,-0.00810680715329945
1638746359378669300,10.69566943359375,-0.049101007777452466,-0.011035627146810292,-0.013511442675814032
1638746359388632300,10.70563232421875,-0.03339198199212551,-0.014207900507375597,-0.004676467378437518
1638746359398596400,10.715596435546875,-0.03428805404901504,-0.020817473106551913,0.010876929453760386
1638746359408559400,10.725559326171876,-0.03665712126791477,-0.017871939440257847,0.019479922626167535
1638746359418522400,10.7355224609375,-0.04520107772946357,-0.013010160356480628,0.006425795263797045
1638746359428485000,10.745485107421874,-0.04747194527089595,-0.0174281046628952,0.0010688713405281305
1638746359438449200,10.75544921875,-0.04300093733668327,-0.014350195054896176,-0.013307736797258257
1638746359448412200,10.765412109375,-0.04511164588034153,-0.01652995024677366,-0.011667349179089069
1638746359458375200,10.775375244140625,-0.049019174712896345,-0.01328391753025353,-0.009424684818834066
1638746359468338700,10.785338623046876,-0.05038286428153515,-0.004495996244996786,-0.008851853366941213
1638746359478302700,10.795302734375,-0.05397299772799015,-0.009531286998465657,-0.009469108482450247
1638746359488265700,10.805265625,-0.06129296535253524,-0.009286244462523609,-0.007337503281235695
1638746359498228700,10.815228759765626,-0.06460252829194069,-0.0025207871818915006,0.003594517360627651
1638746359508191700,10.825191650390625,-0.061786886349320405,0.0014220321597531436,-0.000054506666213274
1638746359518155800,10.83515576171875,-0.039650457864999766,0.003417845619469881,-0.01538980376832187
1638746359528118800,10.845118896484376,-0.030969138759374615,0.0005593874484300613,-0.004804916063696146
1638746359538081500,10.85508154296875,-0.04220131139159202,0.004003317357227206,-0.007445347569882869
1638746359548045800,10.8650458984375,-0.05282265864908695,-0.0004275229633785784,-0.011194251774623989
1638746359558008600,10.875008544921876,-0.061496378970146176,-0.0017134893869981168,-0.000754033237695694
1638746359567971600,10.8849716796875,-0.06134674136638641,-0.006501344718039035,0.004035977517813444
1638746359577934800,10.894934814453125,-0.0384726462572813,-0.000015818623639643192,0.002724164266884327
1638746359587898600,10.904898681640624,-0.030247838747501372,-0.008163944168016314,-0.000985211645066738
1638746359597862000,10.91486181640625,-0.03445814991891384,-0.014899316837638616,-0.015781652630120515
1638746359607825000,10.924824951171875,-0.05210661933422088,-0.007261917294375598,-0.002364317978546023
1638746359617788000,10.934787841796876,-0.0682575436681509,-0.010582421752903609,-0.0021188918501138685
1638746359627752000,10.944751953125,-0.06121405489742755,-0.011067848915979266,-0.0034022096589207645
1638746359637715000,10.95471484375,-0.04206394874751568,-0.006763685448653995,-0.007405307820439338
1638746359647677700,10.964677734375,-0.04251987582147121,-0.011944449087418615,-0.004813391631096601
1638746359657640700,10.974640625,-0.03954056774973869,-0.01557389163095504,-0.0017258008792996405
1638746359667604700,10.984604736328125,-0.04583820658922195,-0.012031268854346126,-0.002978942745551467
1638746359677567700,10.994567626953126,-0.0587023643374443,-0.014133373966440557,-0.008555354638397693
1638746359687530800,11.00453076171875,-0.06199263805449009,-0.008221081182733177,-0.004840644964203238
1638746359697493800,11.01449365234375,-0.046451370051503175,-0.010108082239422946,-0.0030474779371172187
1638746359707457800,11.024457763671874,-0.05304653053283691,-0.003222396112605929,-0.01328311381265521
1638746359717420800,11.0344208984375,-0.04781973579525947,-0.009054645930044352,-0.013948299723118543
1638746359727383800,11.0443837890625,-0.045586277654767034,-0.010683160447329282,-0.008619213654845952
1638746359737346600,11.0543466796875,-0.05128010538220405,-0.014028708015568554,-0.013465338511765002
1638746359747310600,11.064310546875,-0.056362523213028905,-0.0063974276858381925,-0.007178586392477154
1638746359757273600,11.074273681640625,-0.05083236161470413,-0.001937653531692922,-0.007721241901814937
1638746359767236600,11.084236572265626,-0.04066811047494411,-0.003041450055129826,0.0021023060414940118
1638746359777199900,11.094199951171875,-0.03559095334112644,-0.008558131117373705,-0.002300897353515029
1638746359787163600,11.10416357421875,-0.037087913900613785,-0.006882361658569425,-0.017239961679652333
1638746359797126700,11.114126708984376,-0.04038695544600487,-0.017727781729213892,-0.006100947223603725
1638746359807090000,11.12408984375,-0.05551029029786587,-0.013146701016649604,-0.0031662089459598064
1638746359817053000,11.134052978515625,-0.05176993472576141,-0.01665722988825291,-0.008539572547376155
1638746359827016700,11.1440166015625,-0.043971243673563004,-0.007009696098975837,-0.0025138094518333673
1638746359836980000,11.15397998046875,-0.049958501389622684,-0.0072851520394906395,0.006022913551330566
1638746359846942700,11.163942626953125,-0.046079029607772826,-0.006143288527987897,0.0020842589281499383
1638746359856905700,11.17390576171875,-0.03008183453083038,-0.007896598468720912,0.007432488088309764
1638746359866869800,11.183869873046875,-0.04505494725704193,-0.014062391089461742,-0.006553805557638406
1638746359876832800,11.193832763671875,-0.052097851505875585,-0.012163845725450664,-0.00552080924808979
1638746359886795800,11.203795654296876,-0.056150341767072676,-0.011354483837634325,-0.0037632980562746525
1638746359896758800,11.2137587890625,-0.05750643255114555,-0.013440642461925743,-0.002788753935694694
1638746359906722800,11.223722900390625,-0.043134208327531814,-0.007272566552553325,0.0005712240166962147
1638746359916685800,11.233685791015626,-0.04628127418160438,-0.0087282269872725,-0.006431494352221488
1638746359926648800,11.24364892578125,-0.05883563532829284,-0.009165193632431328,-0.00294635565020144
1638746359936611600,11.253611572265624,-0.046404023778438566,-0.011784034361317752,-0.006494549651071429
1638746359946575600,11.26357568359375,-0.04954232180416584,-0.010867522304598242,-0.010142550764605402
1638746359956538600,11.27353857421875,-0.04296294341385364,-0.0007287161333486438,-0.008177899628132581
1638746359966501600,11.283501708984375,-0.04145429241657257,-0.003996558822877705,-0.012343275679275392
1638746359976464600,11.293464599609376,-0.04218319121301174,-0.006027005204558372,-0.0020369857203215358
1638746359986428700,11.3034287109375,-0.037385435542464256,-0.005515402420610189,0.01510740663036704
1638746359996391700,11.3133916015625,-0.04384674051105976,-0.0048436041062697765,0.013244316172227263
1638746360006354700,11.323354736328126,-0.03684533731639385,-0.008898012329917401,-0.009406710770726204
1638746360016318000,11.33331787109375,-0.0386731372654438,-0.010896017746720462,-0.017066139482706785
1638746360026281700,11.34328173828125,-0.06306231311261654,-0.0007699614591896533,-0.01932049428075552
1638746360036245000,11.353244873046876,-0.0720394002944231,0.0014754245811142027,-0.008852803215011954
1638746360046207700,11.363207763671875,-0.05289689292907714,0.004294025665801018,-0.010725026827678084
1638746360056170800,11.373170654296874,-0.04376315388083458,-0.008610573690664022,-0.009271978475153446
1638746360066134800,11.383134765625,-0.036567104896903034,-0.015203834475856274,-0.0014721914444118737
1638746360076097800,11.393097900390625,-0.0471650712788105,-0.016281948568765074,-0.006045344578847289
1638746360086060800,11.403060791015625,-0.05118541283607483,-0.01786203910075128,0.002926408840715885
1638746360096023800,11.41302392578125,-0.05134557183384895,-0.014674020181782543,0.0039062136583030223
1638746360105987800,11.42298779296875,-0.04103635926544666,-0.022040950486902147,0.004770502337440848
1638746360115950800,11.432950927734375,-0.025489830565452575,-0.021749292330257592,-0.0005086801744997501
1638746360125913900,11.442913818359376,-0.03014028671979904,-0.01574725717017427,-0.004881123105064034
1638746360135876600,11.452876708984375,-0.03942600145936012,-0.014467884884122758,-0.010961465932056307
1638746360145840600,11.462840576171875,-0.047809214401245116,-0.007233275721780955,-0.007925970693677663
1638746360155803600,11.4728037109375,-0.054555181530117985,-0.0017321575548499822,-0.00243329156152904
1638746360165766700,11.4827666015625,-0.06771802996397018,0.0002665419816970825,-0.011294131952524185
1638746360175729700,11.492729736328124,-0.06756956140398979,-0.0106461529051885,-0.004252542877942324
1638746360185693700,11.502693603515626,-0.0479576829612255,-0.011603910287749021,-0.004465674171969294
1638746360195656700,11.51265673828125,-0.04361000914573669,-0.007192377455811947,-0.01155555936768651
1638746360205619700,11.52261962890625,-0.03552256428003311,0.0010779314298182726,-0.008031769155710935
1638746360215582700,11.532582763671876,-0.04150046964585781,0.0009934862830676139,-0.01438493757471442
1638746360225546800,11.542546630859375,-0.04882803605496883,-0.0020277064353227616,-0.016241744422540068
1638746360235509800,11.552509765625,-0.05268880313634872,0.000357088075671345,-0.002116188436374068
1638746360245472800,11.56247265625,-0.049829906573891636,-0.004376242322847247,-0.006701105073839426
1638746360255435800,11.572435791015625,-0.06074351477622986,-0.005150825158227235,-0.0015404343750327824
1638746360265399800,11.58239990234375,-0.05187748675346374,-0.014142890713457017,0.0011688976489007473
1638746360275362800,11.59236279296875,-0.04514028745293617,-0.005123425694648176,0.0026514643568545577
1638746360285325800,11.602325927734375,-0.03526069847345352,-0.009575290536973625,0.003386354502663016
1638746360295289900,11.612289794921875,-0.0363204366594553,-0.013578881888836622,-0.009366963282227516
1638746360305252900,11.6222529296875,-0.03245265531539917,-0.009446439992915839,-0.0175691936340183
1638746360315216000,11.6322158203125,-0.03741173902750015,-0.013265103231929242,-0.01289864453971386
1638746360325179000,11.642178955078125,-0.05176292046308517,-0.010863156656734645,-0.006410232368484139
1638746360335143000,11.652142822265626,-0.05550269151329994,-0.005482084672898054,-0.012679668026790021
1638746360345105700,11.662105712890625,-0.05041501298546791,-0.008088595643173904,-0.014037000919878482
1638746360355068700,11.672068603515624,-0.055499768903851505,-0.010471600055880844,-0.009127966894581913
1638746360365031700,11.68203173828125,-0.061035191199183464,0.0009762611536309122,0.0007288257312029599
1638746360374995700,11.69199560546875,-0.06089490594565868,-0.010026450104266404,0.0030380525216460227
1638746360384958700,11.701958740234375,-0.04248597355186939,-0.00434325336869806,-0.008512976801395416
1638746360394921700,11.711921630859376,-0.032177930027246476,-0.006918474151566624,-0.012707798142731189
1638746360404884700,11.721884765625,-0.03306932590901852,-0.009960636592749506,-0.015914119903370737
1638746360414848800,11.731848876953125,-0.05580547385215759,-0.009403897759132087,-0.011666107070073485
1638746360424811800,11.741811767578126,-0.04711304883062839,-0.014515907010622322,-0.008930252365395427
1638746360434774500,11.7517744140625,-0.05997311492562293,-0.015596870647743344,-0.013312778298556803
1638746360444737800,11.76173779296875,-0.056528527429699896,-0.009314831236191094,-0.006004501111805439
1638746360454701600,11.77170166015625,-0.05278174211680889,-0.0031168899115175007,-0.022372429197281597
1638746360464664300,11.781664306640625,-0.051281274425983424,-0.010200692426320164,-0.00685768387503922
1638746360474627300,11.79162744140625,-0.04708557630181312,-0.00537654193919152,-0.009756400991231203
1638746360484590000,11.801590087890625,-0.047692310023307795,-0.007999273391906172,0.004369666451588273
1638746360494553000,11.811552978515625,-0.04500350933074951,-0.00604413900244981,-0.009511047928035258
1638746360504517000,11.82151708984375,-0.047101358392834664,-0.012413527903892099,-0.0075523150756955145
1638746360514480000,11.831480224609376,-0.05368424391448497,-0.01279259034935385,-0.009668722707778216
1638746360524443100,11.841443115234375,-0.055181788995862006,-0.01786967441793531,-0.009212503372877835
1638746360534407200,11.8514072265625,-0.03977203841805458,-0.011458930592797695,-0.0009511632449924945
1638746360544370200,11.8613701171875,-0.04486497764289379,-0.006897796689718961,-0.0001721416965126991
