time,seconds_elapsed,z,y,x
1639426134265324800,0.05132470703125,-0.792999267578125,-0.2910308837890625,-0.4083404541015625
1639426134275345000,0.061344970703125,-0.8069915771484375,-0.277587890625,-0.373260498046875
1639426134285365000,0.071364990234375,-0.8387908935546875,-0.3982391357421875,-0.406646728515625
1639426134295384800,0.081384765625,-0.871124267578125,-0.4987945556640625,-0.434051513671875
1639426134305406000,0.091406005859375,-0.8739776611328125,-0.5414581298828125,-0.457305908203125
1639426134315425800,0.10142578125,-0.834869384765625,-0.5142822265625,-0.4675140380859375
1639426134325446000,0.11144580078125,-0.7857818603515625,-0.432464599609375,-0.428070068359375
1639426134335466000,0.121466064453125,-0.74713134765625,-0.3909759521484375,-0.3933258056640625
1639426134345485800,0.13148583984375,-0.73663330078125,-0.4091796875,-0.3796844482421875
1639426134355506000,0.141505859375,-0.750946044921875,-0.4391937255859375,-0.3573760986328125
1639426134365526000,0.151526123046875,-0.7514495849609375,-0.4497222900390625,-0.3288421630859375
1639426134375545900,0.1615458984375,-0.75860595703125,-0.442718505859375,-0.3144378662109375
1639426134385566000,0.17156591796875,-0.789520263671875,-0.432861328125,-0.312652587890625
1639426134395586000,0.1815859375,-0.83685302734375,-0.426055908203125,-0.3221435546875
1639426134405606100,0.191606201171875,-0.862274169921875,-0.4324798583984375,-0.35211181640625
1639426134415626000,0.2016259765625,-0.88214111328125,-0.4225616455078125,-0.358367919921875
1639426134425646000,0.21164599609375,-0.8764190673828125,-0.4096527099609375,-0.3471527099609375
1639426134435666000,0.221666015625,-0.844512939453125,-0.4107513427734375,-0.3325042724609375
1639426134445685800,0.231685791015625,-0.824554443359375,-0.3701324462890625,-0.285919189453125
1639426134455705900,0.241705810546875,-0.8333282470703125,-0.3515625,-0.2661285400390625
1639426134465727000,0.25172705078125,-0.864715576171875,-0.374786376953125,-0.265594482421875
1639426134475746800,0.261746826171875,-0.89874267578125,-0.4069366455078125,-0.2777557373046875
1639426134485767000,0.271766845703125,-0.9206085205078125,-0.4335479736328125,-0.3108978271484375
1639426134495787000,0.281787109375,-0.922882080078125,-0.4409942626953125,-0.32025146484375
1639426134505806800,0.291806884765625,-0.90020751953125,-0.42877197265625,-0.297821044921875
1639426134515827000,0.301826904296875,-0.8845062255859375,-0.4171600341796875,-0.2729644775390625
1639426134525847000,0.311846923828125,-0.8936614990234375,-0.415924072265625,-0.2783966064453125
1639426134535867000,0.321866943359375,-0.9033050537109375,-0.4297637939453125,-0.2816009521484375
1639426134545887000,0.331886962890625,-0.917388916015625,-0.454742431640625,-0.28558349609375
1639426134555907000,0.341906982421875,-0.917724609375,-0.4765167236328125,-0.30474853515625
1639426134565927000,0.351927001953125,-0.8897247314453125,-0.475433349609375,-0.28704833984375
1639426134575947000,0.361947021484375,-0.862640380859375,-0.46795654296875,-0.235626220703125
1639426134585967000,0.371967041015625,-0.8362579345703125,-0.46429443359375,-0.212493896484375
1639426134595987000,0.381987060546875,-0.8074188232421875,-0.4659576416015625,-0.2160491943359375
1639426134606008000,0.392008056640625,-0.7819061279296875,-0.468292236328125,-0.2250518798828125
1639426134616028000,0.40202783203125,-0.7471160888671875,-0.4670257568359375,-0.231903076171875
1639426134626047700,0.4120478515625,-0.7245941162109375,-0.470062255859375,-0.2340850830078125
1639426134636067800,0.42206787109375,-0.734039306640625,-0.4856109619140625,-0.27191162109375
1639426134646088000,0.432087890625,-0.7697601318359375,-0.5064239501953125,-0.3183746337890625
1639426134656107800,0.442107666015625,-0.8170166015625,-0.525665283203125,-0.3744659423828125
1639426134666128000,0.4521279296875,-0.8504486083984375,-0.5365142822265625,-0.41949462890625
1639426134676148000,0.46214794921875,-0.8961181640625,-0.528717041015625,-0.4290924072265625
1639426134686168000,0.47216796875,-0.9322052001953125,-0.4713287353515625,-0.3800506591796875
1639426134696188000,0.48218798828125,-0.92352294921875,-0.44586181640625,-0.3540802001953125
1639426134706208000,0.4922080078125,-0.90863037109375,-0.457550048828125,-0.331817626953125
1639426134716228000,0.50222802734375,-0.8740692138671875,-0.4794158935546875,-0.29833984375
1639426134726248000,0.512248046875,-0.8155364990234375,-0.4949493408203125,-0.2714385986328125
1639426134736268000,0.52226806640625,-0.7614898681640625,-0.50250244140625,-0.2614288330078125
1639426134746288000,0.5322880859375,-0.7575836181640625,-0.511199951171875,-0.2784881591796875
1639426134756308000,0.542307861328125,-0.7598876953125,-0.5110015869140625,-0.323883056640625
1639426134766329000,0.5523291015625,-0.7651214599609375,-0.50445556640625,-0.3800506591796875
1639426134776349200,0.56234912109375,-0.766326904296875,-0.5045013427734375,-0.426513671875
1639426134786368800,0.57236865234375,-0.764068603515625,-0.5096435546875,-0.483612060546875
1639426134796388900,0.582388916015625,-0.73834228515625,-0.4723968505859375,-0.496063232421875
1639426134806409000,0.592408935546875,-0.7970428466796875,-0.447418212890625,-0.5604705810546875
1639426134816428800,0.6024287109375,-0.809600830078125,-0.4598388671875,-0.6251678466796875
1639426134826449000,0.612448974609375,-0.804962158203125,-0.5192413330078125,-0.6164398193359375
1639426134836469000,0.622468994140625,-0.769989013671875,-0.616119384765625,-0.4977874755859375
1639426134846488800,0.63248876953125,-0.7282562255859375,-0.691986083984375,-0.3269805908203125
1639426134856509000,0.642509033203125,-0.6377716064453125,-0.6757965087890625,-0.2476959228515625
1639426134866529000,0.652529052734375,-0.585418701171875,-0.57049560546875,-0.2617645263671875
1639426134876549000,0.662549072265625,-0.6083984375,-0.4673919677734375,-0.2979888916015625
1639426134886569000,0.67256884765625,-0.6035308837890625,-0.408782958984375,-0.306427001953125
1639426134896589000,0.682589111328125,-0.604522705078125,-0.4361724853515625,-0.2581787109375
1639426134906610000,0.69260986328125,-0.586181640625,-0.49444580078125,-0.27392578125
1639426134916630000,0.702630126953125,-0.5572967529296875,-0.54803466796875,-0.3492889404296875
1639426134926650000,0.712650146484375,-0.5177764892578125,-0.574981689453125,-0.4241790771484375
1639426134936670000,0.722669921875,-0.51031494140625,-0.5336151123046875,-0.4997711181640625
1639426134946690000,0.73268994140625,-0.5669708251953125,-0.4894866943359375,-0.5269622802734375
1639426134956710100,0.742710205078125,-0.608856201171875,-0.4597930908203125,-0.509307861328125
1639426134966730200,0.752730224609375,-0.6192474365234375,-0.422698974609375,-0.5476531982421875
1639426134976750000,0.76275,-0.6049041748046875,-0.4353485107421875,-0.5712738037109375
1639426134986770200,0.772770263671875,-0.5654754638671875,-0.485137939453125,-0.563812255859375
1639426134996790300,0.782790283203125,-0.562957763671875,-0.5072784423828125,-0.5457611083984375
1639426135006810000,0.79281005859375,-0.6082763671875,-0.5032958984375,-0.628814697265625
1639426135016830000,0.802829833984375,-0.6973724365234375,-0.522705078125,-0.693939208984375
1639426135026850000,0.81285009765625,-0.76800537109375,-0.490142822265625,-0.68780517578125
1639426135036870000,0.822869873046875,-0.6628570556640625,-0.4168548583984375,-0.827972412109375
1639426135046891000,0.83289111328125,-0.4423065185546875,-0.416900634765625,-0.8138580322265625
1639426135056911000,0.8429111328125,-0.3057098388671875,-0.45263671875,-0.6898956298828125
1639426135066931000,0.852930908203125,-0.2722015380859375,-0.534881591796875,-0.6808929443359375
1639426135076951000,0.862950927734375,-0.32391357421875,-0.6376953125,-0.5727691650390625
1639426135086971100,0.87297119140625,-0.3394317626953125,-0.7201995849609375,-0.51385498046875
1639426135096991000,0.882990966796875,-0.2401580810546875,-0.7241363525390625,-0.5742340087890625
1639426135107011000,0.893010986328125,-0.1888427734375,-0.6354827880859375,-0.7675933837890625
1639426135117031200,0.90303125,-0.2539825439453125,-0.5782012939453125,-0.9434814453125
1639426135127051000,0.913051025390625,-0.3408050537109375,-0.6252899169921875,-1.0247344970703125
1639426135137071000,0.923071044921875,-0.4046173095703125,-0.659881591796875,-1.09375
1639426135147091200,0.93309130859375,-0.3956146240234375,-0.616363525390625,-1.131591796875
1639426135157111000,0.943111083984375,-0.3349151611328125,-0.577911376953125,-1.0062408447265625
1639426135167131100,0.953131103515625,-0.2322235107421875,-0.532440185546875,-0.8509063720703125
1639426135177151000,0.96315087890625,-0.1405487060546875,-0.4594573974609375,-0.704620361328125
1639426135187171000,0.973171142578125,-0.15142822265625,-0.4005584716796875,-0.5951690673828125
1639426135197191000,0.98319091796875,-0.3116302490234375,-0.39251708984375,-0.5438232421875
1639426135207212000,0.9932119140625,-0.405914306640625,-0.3853607177734375,-0.5606689453125
1639426135217232000,1.00323193359375,-0.3945770263671875,-0.3992767333984375,-0.622467041015625
1639426135227252000,1.013251953125,-0.3390350341796875,-0.419677734375,-0.7059478759765625
1639426135237272000,1.02327197265625,-0.287506103515625,-0.416015625,-0.9690704345703125
1639426135247292200,1.033292236328125,-0.1729583740234375,-0.3738250732421875,-1.1306304931640625
1639426135257312000,1.04331201171875,-0.024627685546875,-0.37921142578125,-1.0341339111328125
1639426135267332000,1.05333203125,0.0303497314453125,-0.40875244140625,-0.8632659912109375
1639426135277352200,1.063352294921875,0.021148681640625,-0.4208221435546875,-0.7147979736328125
1639426135287372000,1.0733720703125,-0.0849761962890625,-0.423065185546875,-0.67852783203125
1639426135297392000,1.08339208984375,-0.1469268798828125,-0.3619842529296875,-0.6347808837890625
1639426135307412200,1.093412109375,-0.1165618896484375,-0.2996978759765625,-0.661468505859375
1639426135317432000,1.10343212890625,-0.009521484375,-0.3099517822265625,-0.7870025634765625
1639426135327452200,1.1134521484375,0.05059814453125,-0.400421142578125,-0.8564605712890625
1639426135337472000,1.123471923828125,0.1656646728515625,-0.530853271484375,-0.793487548828125
1639426135347492000,1.1334921875,0.4621124267578125,-0.6775970458984375,-0.9473114013671875
1639426135357513200,1.14351318359375,0.5239410400390625,-0.792724609375,-1.0513763427734375
1639426135367533000,1.153532958984375,0.5489349365234375,-0.77825927734375,-1.040283203125
1639426135377553000,1.163552978515625,0.4983367919921875,-0.640777587890625,-0.9903717041015625
1639426135387573000,1.173572998046875,0.433837890625,-0.415435791015625,-0.8243560791015625
1639426135397593000,1.183593017578125,0.4236907958984375,-0.2991790771484375,-0.7415618896484375
1639426135407613000,1.193613037109375,0.4708099365234375,-0.3365020751953125,-0.712860107421875
1639426135417633000,1.203633056640625,0.5508270263671875,-0.3634185791015625,-0.6990814208984375
1639426135427653000,1.213653076171875,0.6867218017578125,-0.388153076171875,-0.648773193359375
1639426135437673200,1.223673095703125,0.727508544921875,-0.4471282958984375,-0.579681396484375
1639426135447693000,1.233693115234375,0.701019287109375,-0.46990966796875,-0.6264495849609375
1639426135457713200,1.243713134765625,0.667144775390625,-0.3907012939453125,-0.6357269287109375
1639426135467733200,1.253733154296875,0.6563720703125,-0.3403472900390625,-0.658966064453125
1639426135477753000,1.263753173828125,0.7181243896484375,-0.383087158203125,-0.6371612548828125
1639426135487773200,1.273773193359375,0.765869140625,-0.407684326171875,-0.613677978515625
1639426135497794000,1.2837939453125,0.7974090576171875,-0.3831024169921875,-0.5761260986328125
1639426135507814100,1.293814208984375,0.8849945068359375,-0.381195068359375,-0.5684967041015625
1639426135517834200,1.303834228515625,0.9449310302734375,-0.4429931640625,-0.5443115234375
1639426135527854000,1.31385400390625,0.8499603271484375,-0.468505859375,-0.4889068603515625
1639426135537874000,1.3238740234375,0.73736572265625,-0.4340667724609375,-0.5507354736328125
1639426135547894000,1.33389404296875,0.668304443359375,-0.4912261962890625,-0.77996826171875
1639426135557914000,1.3439140625,0.536102294921875,-0.537353515625,-0.8368377685546875
1639426135567934000,1.353933837890625,0.420196533203125,-0.4648590087890625,-0.803253173828125
1639426135577954000,1.3639541015625,0.5079498291015625,-0.4543914794921875,-0.7891693115234375
1639426135587974100,1.37397412109375,0.705047607421875,-0.503875732421875,-0.753570556640625
1639426135597994000,1.383993896484375,0.6808319091796875,-0.5118408203125,-0.7164764404296875
1639426135608014000,1.39401416015625,0.553314208984375,-0.417755126953125,-0.7388916015625
1639426135618034200,1.4040341796875,0.5180511474609375,-0.368865966796875,-0.7224578857421875
1639426135628054000,1.414053955078125,0.6266937255859375,-0.37060546875,-0.62158203125
1639426135638074000,1.42407421875,0.73193359375,-0.3767547607421875,-0.633270263671875
1639426135648095200,1.43409521484375,0.66510009765625,-0.37054443359375,-0.667022705078125
1639426135658115000,1.444114990234375,0.5806427001953125,-0.31011962890625,-0.7561492919921875
1639426135668135200,1.45413525390625,0.51629638671875,-0.1897430419921875,-0.789093017578125
1639426135678155300,1.4641552734375,0.4964447021484375,-0.0404510498046875,-0.722076416015625
1639426135688174800,1.4741748046875,0.6400146484375,-0.038116455078125,-0.7107696533203125
1639426135698195000,1.48419482421875,0.8126983642578125,-0.1367340087890625,-0.732452392578125
1639426135708215000,1.494215087890625,0.7580108642578125,-0.17889404296875,-0.6778717041015625
1639426135718235100,1.504235107421875,0.7368011474609375,-0.18597412109375,-0.6334075927734375
1639426135728255000,1.5142548828125,0.75128173828125,-0.094329833984375,-0.6061248779296875
1639426135738275000,1.524275146484375,0.82672119140625,-0.07928466796875,-0.63458251953125
1639426135748295200,1.534295166015625,0.86944580078125,-0.139129638671875,-0.605743408203125
1639426135758315000,1.54431494140625,0.829345703125,-0.1688690185546875,-0.551116943359375
1639426135768335000,1.554335205078125,0.8350372314453125,-0.156890869140625,-0.5361175537109375
1639426135778355200,1.564355224609375,0.802001953125,-0.06585693359375,-0.539154052734375
1639426135788376000,1.5743759765625,0.7598114013671875,-0.064239501953125,-0.5373992919921875
1639426135798396200,1.584396240234375,0.7906341552734375,-0.1349945068359375,-0.5582122802734375
1639426135808416300,1.594416259765625,0.7698516845703125,-0.208465576171875,-0.5427398681640625
1639426135818436000,1.60443603515625,0.9246063232421875,-0.299957275390625,-0.519561767578125
1639426135828456200,1.614456298828125,0.966278076171875,-0.3574676513671875,-0.506378173828125
1639426135838476300,1.624476318359375,0.853271484375,-0.526519775390625,-0.4483795166015625
1639426135848495900,1.634495849609375,0.83038330078125,-0.41162109375,-0.4305572509765625
1639426135858516000,1.644515869140625,0.91485595703125,-0.2745361328125,-0.4817352294921875
1639426135868536000,1.6545361328125,0.8905029296875,-0.2829132080078125,-0.446441650390625
1639426135878556000,1.664555908203125,0.8971405029296875,-0.285797119140625,-0.4608917236328125
1639426135888576000,1.674575927734375,0.86737060546875,-0.2725677490234375,-0.4757232666015625
1639426135898596000,1.68459619140625,0.8759765625,-0.2745819091796875,-0.4902801513671875
1639426135908616200,1.6946162109375,0.8903961181640625,-0.2644500732421875,-0.464996337890625
1639426135918635800,1.7046357421875,0.920501708984375,-0.2663421630859375,-0.4228973388671875
1639426135928656000,1.71465576171875,0.91693115234375,-0.26043701171875,-0.43060302734375
1639426135938676700,1.7246767578125,0.9045867919921875,-0.2540740966796875,-0.4427642822265625
1639426135948696800,1.73469677734375,0.8787994384765625,-0.2539215087890625,-0.4459686279296875
1639426135958717000,1.744717041015625,0.8770751953125,-0.260528564453125,-0.4300689697265625
1639426135968736800,1.75473681640625,0.88336181640625,-0.261688232421875,-0.426666259765625
1639426135978756900,1.7647568359375,0.876190185546875,-0.26824951171875,-0.4219207763671875
1639426135988777000,1.77477685546875,0.8805084228515625,-0.288116455078125,-0.4197235107421875
1639426135998797000,1.784797119140625,0.867279052734375,-0.2709503173828125,-0.4198760986328125
1639426136008817000,1.79481689453125,0.8364410400390625,-0.262359619140625,-0.41668701171875
1639426136018837000,1.8048369140625,0.8377685546875,-0.2490386962890625,-0.4317779541015625
1639426136028857000,1.814857177734375,0.828765869140625,-0.256256103515625,-0.4553375244140625
1639426136038877000,1.824876953125,0.844024658203125,-0.2652435302734375,-0.4630126953125
1639426136048897000,1.83489697265625,0.8693389892578125,-0.26708984375,-0.47210693359375
1639426136058917000,1.844917236328125,0.879638671875,-0.271331787109375,-0.4704742431640625
1639426136068938000,1.85493798828125,0.8721771240234375,-0.269989013671875,-0.4769287109375
1639426136078958000,1.8649580078125,0.8281707763671875,-0.27398681640625,-0.473663330078125
1639426136088978200,1.874978271484375,0.8155517578125,-0.275238037109375,-0.468231201171875
1639426136098997800,1.884997802734375,0.8184661865234375,-0.2791748046875,-0.45989990234375
1639426136109017900,1.895017822265625,0.85302734375,-0.28228759765625,-0.464752197265625
1639426136119038000,1.905037841796875,0.863861083984375,-0.4312286376953125,-0.4350433349609375
1639426136129057800,1.915057861328125,0.6961822509765625,-0.232177734375,-0.494354248046875
1639426136139078000,1.925077880859375,0.7260589599609375,-0.3856048583984375,-0.6024932861328125
1639426136149098000,1.935097900390625,0.830322265625,-0.351776123046875,-0.5409698486328125
1639426136159117800,1.945117919921875,0.8421783447265625,-0.3566131591796875,-0.5172271728515625
1639426136169138000,1.955137939453125,0.869384765625,-0.3918304443359375,-0.5025787353515625
1639426136179158000,1.965157958984375,0.8137359619140625,-0.3503875732421875,-0.495758056640625
1639426136189178000,1.97517822265625,0.7842864990234375,-0.3541107177734375,-0.501556396484375
1639426136199198000,1.985197998046875,0.770751953125,-0.4080047607421875,-0.503631591796875
1639426136209219000,1.995218994140625,0.769744873046875,-0.489288330078125,-0.5370941162109375
1639426136219239000,2.005239013671875,0.759063720703125,-0.5006866455078125,-0.5357818603515625
1639426136229259000,2.015259033203125,0.7820281982421875,-0.5250244140625,-0.5172271728515625
1639426136239279000,2.025279052734375,0.8204498291015625,-0.6118621826171875,-0.500091552734375
1639426136249299000,2.035298828125,0.8549652099609375,-0.8021087646484375,-0.435272216796875
1639426136259319000,2.045319091796875,0.8446502685546875,-1.0199432373046875,-0.4133758544921875
1639426136269339000,2.0553388671875,0.81573486328125,-1.063812255859375,-0.4620361328125
1639426136279359000,2.06535888671875,0.7720184326171875,-1.064697265625,-0.475250244140625
1639426136289378800,2.07537890625,0.61309814453125,-0.7817230224609375,-0.4188232421875
1639426136299399000,2.08539892578125,0.9175262451171875,-0.2300872802734375,-0.357421875
1639426136309419000,2.0954189453125,0.49456787109375,-0.8394622802734375,-0.410400390625
1639426136319438800,2.10543896484375,0.63604736328125,-0.8124847412109375,-0.37518310546875
1639426136329459000,2.115458984375,0.9875030517578125,-0.456787109375,-0.382232666015625
1639426136339479800,2.125479736328125,0.9330596923828125,-0.259124755859375,-0.3669586181640625
1639426136349500000,2.1355,0.9005126953125,0.060699462890625,-0.40447998046875
1639426136359520000,2.14552001953125,0.8384857177734375,0.320831298828125,-0.4740753173828125
1639426136369540000,2.1555400390625,0.835723876953125,0.486602783203125,-0.5133819580078125
1639426136379560000,2.165559814453125,0.9276885986328125,0.611968994140625,-0.573822021484375
1639426136389580000,2.175580078125,0.9904937744140625,0.5977020263671875,-0.592193603515625
1639426136399600000,2.18560009765625,0.94287109375,0.4116058349609375,-0.5265045166015625
1639426136409620000,2.195619873046875,0.9658966064453125,0.09552001953125,-0.4427947998046875
1639426136419640000,2.20564013671875,0.9210968017578125,-0.1895294189453125,-0.3669281005859375
1639426136429660000,2.215659912109375,0.8702239990234375,-0.297210693359375,-0.3353271484375
1639426136439679700,2.2256796875,0.8595428466796875,-0.3076324462890625,-0.3258819580078125
1639426136449699800,2.235699951171875,0.8829803466796875,-0.2916717529296875,-0.3261871337890625
1639426136459720000,2.245719970703125,0.9142303466796875,-0.2801361083984375,-0.3266448974609375
1639426136469740000,2.255739990234375,0.9327545166015625,-0.2119903564453125,-0.3687286376953125
1639426136479761000,2.265760986328125,0.90478515625,-0.2347564697265625,-0.39178466796875
1639426136489781000,2.275781005859375,0.9117431640625,-0.3138427734375,-0.3986358642578125
1639426136499800800,2.28580078125,0.9206085205078125,-0.364013671875,-0.3841400146484375
1639426136509821000,2.295821044921875,0.91497802734375,-0.369537353515625,-0.36334228515625
1639426136519841000,2.305841064453125,0.9300384521484375,-0.2403411865234375,-0.368682861328125
1639426136529860900,2.31586083984375,0.958404541015625,-0.1523590087890625,-0.4188385009765625
1639426136539881000,2.325880859375,0.9649200439453125,-0.1812744140625,-0.4449920654296875
1639426136549901000,2.335901123046875,0.93768310546875,-0.1708526611328125,-0.4422607421875
1639426136559921200,2.345921142578125,0.92022705078125,-0.1187744140625,-0.445770263671875
1639426136569941000,2.35594091796875,0.9150543212890625,-0.115753173828125,-0.4427032470703125
1639426136579961000,2.365961181640625,0.906768798828125,-0.13665771484375,-0.435272216796875
1639426136589981000,2.37598095703125,0.89447021484375,-0.1684417724609375,-0.4253692626953125
1639426136600000800,2.386000732421875,0.882598876953125,-0.241455078125,-0.412567138671875
1639426136610020900,2.396020751953125,0.881378173828125,-0.2957000732421875,-0.3957672119140625
1639426136620041700,2.406041748046875,0.8656463623046875,-0.3147430419921875,-0.387115478515625
1639426136630061800,2.416061767578125,0.8558197021484375,-0.2834930419921875,-0.384490966796875
1639426136640082000,2.42608203125,0.8603515625,-0.2345733642578125,-0.396575927734375
1639426136650102000,2.43610205078125,0.853485107421875,-0.2123565673828125,-0.4032135009765625
1639426136660121900,2.446121826171875,0.85394287109375,-0.218841552734375,-0.4073944091796875
1639426136670142000,2.456141845703125,0.86138916015625,-0.2523956298828125,-0.4075469970703125
1639426136680162000,2.466162109375,0.87493896484375,-0.27581787109375,-0.4090423583984375
1639426136690182000,2.476181884765625,0.889251708984375,-0.30999755859375,-0.412567138671875
1639426136700202000,2.486201904296875,0.89599609375,-0.352874755859375,-0.4085540771484375
1639426136710222000,2.49622216796875,0.8960113525390625,-0.352935791015625,-0.3937225341796875
1639426136720242000,2.506241943359375,0.8981170654296875,-0.3443450927734375,-0.39813232421875
1639426136730262000,2.516261962890625,0.888427734375,-0.344085693359375,-0.3988189697265625
1639426136740282000,2.5262822265625,0.8920135498046875,-0.327880859375,-0.4045867919921875
1639426136750302000,2.536302001953125,0.895721435546875,-0.291229248046875,-0.415283203125
1639426136760323000,2.546322998046875,0.8868255615234375,-0.260223388671875,-0.4216766357421875
1639426136770343200,2.55634326171875,0.8763885498046875,-0.2634429931640625,-0.4130859375
1639426136780362800,2.56636279296875,0.8716888427734375,-0.28857421875,-0.419586181640625
1639426136790382800,2.5763828125,0.8713836669921875,-0.323822021484375,-0.4051055908203125
1639426136800403000,2.58640283203125,0.8678741455078125,-0.3088836669921875,-0.392852783203125
1639426136810422800,2.5964228515625,0.866058349609375,-0.2927703857421875,-0.394378662109375
1639426136820443000,2.60644287109375,0.8630828857421875,-0.265838623046875,-0.40557861328125
1639426136830463000,2.616462890625,0.868408203125,-0.2283782958984375,-0.41314697265625
1639426136840483000,2.626483154296875,0.8678131103515625,-0.198272705078125,-0.4249725341796875
1639426136850503000,2.6365029296875,0.8674468994140625,-0.187042236328125,-0.428131103515625
1639426136860523000,2.64652294921875,0.866973876953125,-0.181182861328125,-0.437408447265625
1639426136870542600,2.65654248046875,0.8670196533203125,-0.199798583984375,-0.436676025390625
1639426136880562400,2.6665625,0.85455322265625,-0.2351531982421875,-0.439788818359375
1639426136890582500,2.67658251953125,0.8624420166015625,-0.247772216796875,-0.445037841796875
1639426136900602400,2.686602294921875,0.86151123046875,-0.2532196044921875,-0.4411163330078125
1639426136910623500,2.69662353515625,0.8525848388671875,-0.266448974609375,-0.43890380859375
1639426136920643600,2.7066435546875,0.8490753173828125,-0.329254150390625,-0.4302520751953125
1639426136930663400,2.716663330078125,0.8434295654296875,-0.3216094970703125,-0.428070068359375
1639426136940683300,2.726683349609375,0.8497772216796875,-0.2516632080078125,-0.4311065673828125
1639426136950703400,2.736703369140625,0.85882568359375,-0.20025634765625,-0.44403076171875
1639426136960723500,2.746723388671875,0.8702239990234375,-0.2024993896484375,-0.45599365234375
1639426136970743300,2.756743408203125,0.87493896484375,-0.23956298828125,-0.467926025390625
1639426136980763400,2.766763427734375,0.8707275390625,-0.278411865234375,-0.4705810546875
1639426136990783500,2.776783447265625,0.8600616455078125,-0.2955780029296875,-0.4712982177734375
1639426137000803600,2.786803466796875,0.8496856689453125,-0.286651611328125,-0.4708099365234375
1639426137010823400,2.796823486328125,0.8439788818359375,-0.294769287109375,-0.470458984375
1639426137020843500,2.806843505859375,0.8445281982421875,-0.2745513916015625,-0.4700469970703125
1639426137030863600,2.816863525390625,0.853912353515625,-0.2677001953125,-0.47528076171875
1639426137040883500,2.826883544921875,0.8630523681640625,-0.2711334228515625,-0.475860595703125
1639426137050904600,2.836904541015625,0.8670196533203125,-0.278228759765625,-0.460205078125
1639426137060924400,2.84692431640625,0.86669921875,-0.2910614013671875,-0.4395294189453125
1639426137070944500,2.856944580078125,0.86517333984375,-0.2846832275390625,-0.4275665283203125
1639426137080964600,2.866964599609375,0.8663177490234375,-0.2743072509765625,-0.4133148193359375
1639426137090984400,2.876984375,0.8765869140625,-0.2584381103515625,-0.400970458984375
1639426137101004300,2.88700439453125,0.88543701171875,-0.270599365234375,-0.39898681640625
1639426137111024400,2.8970244140625,0.8873291015625,-0.273956298828125,-0.4012451171875
1639426137121044500,2.90704443359375,0.8826141357421875,-0.25555419921875,-0.4053802490234375
1639426137131064300,2.917064208984375,0.8828277587890625,-0.248077392578125,-0.4178314208984375
1639426137141084400,2.92708447265625,0.888336181640625,-0.247039794921875,-0.4203643798828125
1639426137151104500,2.9371044921875,0.891693115234375,-0.240142822265625,-0.4264068603515625
1639426137161124400,2.947124267578125,0.8992156982421875,-0.247222900390625,-0.43267822265625
1639426137171144400,2.95714453125,0.8976593017578125,-0.245330810546875,-0.4282073974609375
1639426137181164500,2.96716455078125,0.8900146484375,-0.21240234375,-0.4219512939453125
1639426137191184600,2.9771845703125,0.8883514404296875,-0.169647216796875,-0.4292449951171875
1639426137201205500,2.98720556640625,0.888519287109375,-0.1565399169921875,-0.435638427734375
1639426137211225600,2.9972255859375,0.884674072265625,-0.1427001953125,-0.444580078125
1639426137221245400,3.007245361328125,0.883697509765625,-0.12469482421875,-0.4693145751953125
1639426137231265500,3.017265625,0.8759918212890625,-0.1386871337890625,-0.4595184326171875
1639426137241285600,3.02728564453125,0.8669586181640625,-0.170684814453125,-0.4322967529296875
1639426137251305200,3.03730517578125,0.8664093017578125,-0.190887451171875,-0.4266510009765625
1639426137261325300,3.0473251953125,0.868560791015625,-0.219024658203125,-0.425445556640625
1639426137271345400,3.057345458984375,0.8728485107421875,-0.238311767578125,-0.430511474609375
1639426137281365500,3.067365478515625,0.87054443359375,-0.2391815185546875,-0.434844970703125
1639426137291385300,3.07738525390625,0.8673858642578125,-0.2392730712890625,-0.44122314453125
1639426137301405400,3.087405517578125,0.8650360107421875,-0.229736328125,-0.44610595703125
1639426137311425500,3.097425537109375,0.8654937744140625,-0.2275238037109375,-0.44720458984375
1639426137321445400,3.1074453125,0.868194580078125,-0.212860107421875,-0.4505462646484375
1639426137331465500,3.117465576171875,0.871978759765625,-0.19989013671875,-0.4475555419921875
1639426137341486300,3.127486328125,0.878387451171875,-0.1958770751953125,-0.4476165771484375
1639426137351506400,3.13750634765625,0.88739013671875,-0.207275390625,-0.4553375244140625
1639426137361526500,3.147526611328125,0.8905792236328125,-0.2366180419921875,-0.46209716796875
1639426137371546600,3.157546630859375,0.89642333984375,-0.2915191650390625,-0.4704132080078125
1639426137381566500,3.16756640625,0.887451171875,-0.348785400390625,-0.4839935302734375
1639426137391586600,3.177586669921875,0.862457275390625,-0.311065673828125,-0.4734954833984375
1639426137401606700,3.187606689453125,0.857940673828125,-0.28558349609375,-0.460845947265625
1639426137411626200,3.197626220703125,0.8641357421875,-0.27215576171875,-0.462646484375
1639426137421646300,3.207646240234375,0.8588409423828125,-0.2550811767578125,-0.45074462890625
1639426137431666400,3.21766650390625,0.8572998046875,-0.24432373046875,-0.4367218017578125
1639426137441686300,3.227686279296875,0.8629150390625,-0.2448883056640625,-0.430999755859375
1639426137451706400,3.237706298828125,0.8770599365234375,-0.24139404296875,-0.42437744140625
1639426137461726500,3.2477265625,0.894989013671875,-0.2432861328125,-0.429656982421875
1639426137471746600,3.25774658203125,0.8999786376953125,-0.2666168212890625,-0.4481048583984375
1639426137481766400,3.267766357421875,0.8964385986328125,-0.2801666259765625,-0.463836669921875
1639426137491787500,3.27778759765625,0.885101318359375,-0.276153564453125,-0.47479248046875
1639426137501807400,3.287807373046875,0.86846923828125,-0.26177978515625,-0.4769287109375
1639426137511827500,3.297827392578125,0.852020263671875,-0.24725341796875,-0.465057373046875
1639426137521847600,3.30784765625,0.839141845703125,-0.23822021484375,-0.448272705078125
1639426137531867400,3.317867431640625,0.8358154296875,-0.2252960205078125,-0.4363555908203125
1639426137541887500,3.327887451171875,0.8399658203125,-0.21307373046875,-0.432098388671875
1639426137551907600,3.337907470703125,0.850341796875,-0.210784912109375,-0.4326171875
1639426137561927700,3.347927734375,0.8618316650390625,-0.2127227783203125,-0.4325103759765625
1639426137571947300,3.357947265625,0.8734588623046875,-0.217041015625,-0.429779052734375
1639426137581967400,3.36796728515625,0.8829345703125,-0.2207489013671875,-0.42681884765625
1639426137591987500,3.377987548828125,0.891754150390625,-0.2213134765625,-0.424713134765625
1639426137602007300,3.38800732421875,0.8971099853515625,-0.21844482421875,-0.423004150390625
1639426137612027400,3.39802734375,0.9001312255859375,-0.2191619873046875,-0.4255828857421875
1639426137622047500,3.408047607421875,0.90283203125,-0.22064208984375,-0.428314208984375
1639426137632068400,3.418068359375,0.904022216796875,-0.2199249267578125,-0.428436279296875
1639426137642088400,3.42808837890625,0.902252197265625,-0.2207183837890625,-0.4298553466796875
1639426137652108500,3.438108642578125,0.897430419921875,-0.2232513427734375,-0.4337921142578125
1639426137662128400,3.44812841796875,0.894805908203125,-0.223114013671875,-0.4310302734375
1639426137672148500,3.4581484375,0.892486572265625,-0.2258148193359375,-0.4295806884765625
1639426137682168600,3.46816845703125,0.8890533447265625,-0.22930908203125,-0.42803955078125
1639426137692188400,3.4781884765625,0.8878936767578125,-0.2298126220703125,-0.424530029296875
1639426137702208500,3.48820849609375,0.8867950439453125,-0.2265167236328125,-0.4223785400390625
1639426137712228600,3.498228515625,0.8860931396484375,-0.219207763671875,-0.4229278564453125
1639426137722248400,3.50824853515625,0.88458251953125,-0.2159576416015625,-0.42584228515625
1639426137732268300,3.518268310546875,0.8837890625,-0.2153778076171875,-0.425323486328125
1639426137742288400,3.528288330078125,0.88214111328125,-0.191497802734375,-0.4317779541015625
1639426137752308500,3.53830859375,0.88623046875,-0.2303314208984375,-0.4168853759765625
1639426137762328300,3.548328369140625,0.8859100341796875,-0.2558135986328125,-0.3961639404296875
1639426137772349400,3.558349365234375,0.8781585693359375,-0.226470947265625,-0.4195709228515625
1639426137782369300,3.568369384765625,0.87237548828125,-0.2302093505859375,-0.4449310302734375
1639426137792389400,3.578389404296875,0.865570068359375,-0.2232513427734375,-0.46343994140625
1639426137802409500,3.588409423828125,0.86761474609375,-0.2197265625,-0.465972900390625
1639426137812429300,3.59842919921875,0.8712921142578125,-0.2214813232421875,-0.4522857666015625
1639426137822449400,3.608449462890625,0.8743743896484375,-0.2249603271484375,-0.4356689453125
1639426137832469500,3.618469482421875,0.8773040771484375,-0.2263946533203125,-0.4233856201171875
1639426137842489600,3.628489501953125,0.87646484375,-0.2261505126953125,-0.41912841796875
1639426137852509400,3.638509521484375,0.8770294189453125,-0.2225799560546875,-0.41912841796875
1639426137862529500,3.648529541015625,0.8771209716796875,-0.2167510986328125,-0.4185028076171875
1639426137872550000,3.6585498046875,0.8775787353515625,-0.2158355712890625,-0.418212890625
1639426137882570000,3.668570068359375,0.8798828125,-0.2140045166015625,-0.423858642578125
1639426137892590000,3.678590087890625,0.884521484375,-0.218414306640625,-0.4212188720703125
1639426137902610200,3.688610107421875,0.8878631591796875,-0.2160491943359375,-0.4198150634765625
1639426137912629800,3.698629638671875,0.892181396484375,-0.218231201171875,-0.418548583984375
1639426137922651100,3.708651123046875,0.893524169921875,-0.2174835205078125,-0.416717529296875
1639426137932670700,3.718670654296875,0.8931732177734375,-0.2201080322265625,-0.4190673828125
1639426137942690800,3.72869091796875,0.8905792236328125,-0.2210693359375,-0.4249114990234375
1639426137952711000,3.7387109375,0.8845977783203125,-0.2185211181640625,-0.43585205078125
1639426137962731000,3.74873095703125,0.88055419921875,-0.219146728515625,-0.44329833984375
1639426137972750800,3.758750732421875,0.8782196044921875,-0.2190093994140625,-0.4513397216796875
1639426137982771000,3.76877099609375,0.87799072265625,-0.2189483642578125,-0.453826904296875
1639426137992791000,3.778791015625,0.8772735595703125,-0.22442626953125,-0.4534759521484375
1639426138002811000,3.788810791015625,0.8777618408203125,-0.2251434326171875,-0.4541168212890625
1639426138012831000,3.7988310546875,0.8780975341796875,-0.22125244140625,-0.4555206298828125
1639426138022851000,3.80885107421875,0.8766937255859375,-0.2221832275390625,-0.452117919921875
1639426138032871000,3.818870849609375,0.8740386962890625,-0.2225494384765625,-0.4455413818359375
1639426138042891000,3.82889111328125,0.8723602294921875,-0.216461181640625,-0.4393463134765625
1639426138052911900,3.838911865234375,0.8704071044921875,-0.21307373046875,-0.4365081787109375
1639426138062932000,3.848931884765625,0.871826171875,-0.2134552001953125,-0.4354095458984375
1639426138072952000,3.8589521484375,0.8741912841796875,-0.2136383056640625,-0.434356689453125
1639426138082972200,3.86897216796875,0.875762939453125,-0.21197509765625,-0.43243408203125
1639426138092992000,3.878991943359375,0.8813018798828125,-0.2154541015625,-0.429931640625
1639426138103011800,3.88901171875,0.886810302734375,-0.21795654296875,-0.429656982421875
1639426138113032000,3.899031982421875,0.8899383544921875,-0.219879150390625,-0.4315032958984375
1639426138123051800,3.9090517578125,0.8902130126953125,-0.2199249267578125,-0.4334564208984375
1639426138133072000,3.91907177734375,0.89306640625,-0.220184326171875,-0.4347381591796875
1639426138143092000,3.929092041015625,0.8930511474609375,-0.2209625244140625,-0.4358978271484375
1639426138153111800,3.93911181640625,0.893829345703125,-0.2210235595703125,-0.4349822998046875
1639426138163132000,3.9491318359375,0.891571044921875,-0.2209625244140625,-0.4345703125
1639426138173152000,3.959152099609375,0.8885345458984375,-0.2129364013671875,-0.4350738525390625
1639426138183172000,3.969172119140625,0.88336181640625,-0.20751953125,-0.438629150390625
1639426138193193000,3.97919287109375,0.8809661865234375,-0.2122039794921875,-0.4425506591796875
1639426138203213000,3.989213134765625,0.8801116943359375,-0.2196197509765625,-0.4406280517578125
1639426138213233000,3.99923291015625,0.881103515625,-0.2226104736328125,-0.4355926513671875
1639426138223253000,4.0092529296875,0.8787994384765625,-0.220184326171875,-0.426727294921875
1639426138233273000,4.019273193359375,0.87896728515625,-0.2187042236328125,-0.421417236328125
1639426138243293000,4.02929296875,0.8797149658203125,-0.2187957763671875,-0.4209747314453125
1639426138253313000,4.03931298828125,0.8810577392578125,-0.2161712646484375,-0.4251708984375
1639426138263332900,4.049332763671875,0.8825225830078125,-0.2165374755859375,-0.4313201904296875
1639426138273353000,4.05935302734375,0.8827362060546875,-0.21429443359375,-0.4345703125
1639426138283372800,4.069372802734375,0.885009765625,-0.2165069580078125,-0.4344940185546875
1639426138293393000,4.079392822265625,0.88787841796875,-0.2188720703125,-0.435577392578125
1639426138303413000,4.0894130859375,0.8859405517578125,-0.21875,-0.4369964599609375
1639426138313432800,4.099432861328125,0.8833770751953125,-0.214752197265625,-0.436859130859375
1639426138323453000,4.109452880859375,0.8824005126953125,-0.21295166015625,-0.43829345703125
1639426138333474000,4.11947412109375,0.879669189453125,-0.2088165283203125,-0.4384613037109375
1639426138343494000,4.129493896484375,0.8811187744140625,-0.206695556640625,-0.435791015625
1639426138353514000,4.139513916015625,0.88433837890625,-0.2122650146484375,-0.432159423828125
1639426138363534000,4.1495341796875,0.8877105712890625,-0.211334228515625,-0.428619384765625
1639426138373554000,4.159553955078125,0.8895111083984375,-0.2155609130859375,-0.4246826171875
1639426138383574000,4.169573974609375,0.88983154296875,-0.2167816162109375,-0.4222564697265625
1639426138393594000,4.179593994140625,0.8895721435546875,-0.213592529296875,-0.4228668212890625
1639426138403614000,4.189614013671875,0.8880157470703125,-0.189300537109375,-0.4295806884765625
1639426138413634000,4.199634033203125,0.8860626220703125,-0.2126922607421875,-0.435791015625
1639426138423654000,4.20965380859375,0.883209228515625,-0.2240753173828125,-0.43670654296875
1639426138433674000,4.219674072265625,0.8826751708984375,-0.2332000732421875,-0.42425537109375
1639426138443693800,4.22969384765625,0.8829345703125,-0.218963623046875,-0.4299468994140625
1639426138453714000,4.2397138671875,0.883697509765625,-0.1954803466796875,-0.431365966796875
1639426138463734000,4.249734130859375,0.88543701171875,-0.2006683349609375,-0.437408447265625
1639426138473753900,4.25975390625,0.8881988525390625,-0.191741943359375,-0.436920166015625
1639426138483775000,4.26977490234375,0.8918609619140625,-0.2133636474609375,-0.436676025390625
1639426138493794800,4.279794921875,0.8932037353515625,-0.2218780517578125,-0.4402313232421875
1639426138503815000,4.28981494140625,0.88800048828125,-0.2167205810546875,-0.4464569091796875
1639426138513835000,4.2998349609375,0.8829193115234375,-0.22430419921875,-0.440948486328125
1639426138523854800,4.309854736328125,0.87432861328125,-0.2149658203125,-0.4367828369140625
1639426138533875000,4.319875,0.8699188232421875,-0.205291748046875,-0.4400634765625
1639426138543895000,4.32989501953125,0.8725433349609375,-0.2038116455078125,-0.4422607421875
1639426138553915100,4.3399150390625,0.8772125244140625,-0.202239990234375,-0.4530792236328125
1639426138563935000,4.34993505859375,0.8853759765625,-0.1994476318359375,-0.460906982421875
1639426138573955000,4.359955078125,0.8910675048828125,-0.1834869384765625,-0.47686767578125
1639426138583975000,4.369974853515625,0.8959503173828125,-0.225738525390625,-0.4498138427734375
1639426138593994800,4.379994873046875,0.89324951171875,-0.2749481201171875,-0.4229278564453125
1639426138604016000,4.39001611328125,0.8850250244140625,-0.257720947265625,-0.44561767578125
1639426138614036000,4.400035888671875,0.88427734375,-0.2387237548828125,-0.47412109375
1639426138624055800,4.410055908203125,0.88446044921875,-0.2210235595703125,-0.46734619140625
1639426138634076000,4.420075927734375,0.8818511962890625,-0.2089691162109375,-0.4512481689453125
1639426138644096000,4.430095947265625,0.8855438232421875,-0.2117919921875,-0.4331207275390625
1639426138654115800,4.44011572265625,0.8910369873046875,-0.2138671875,-0.412841796875
1639426138664136000,4.450135986328125,0.891082763671875,-0.2140045166015625,-0.40155029296875
1639426138674156000,4.460156005859375,0.8852081298828125,-0.210601806640625,-0.41448974609375
1639426138684176000,4.47017578125,0.8793792724609375,-0.2027740478515625,-0.4313812255859375
1639426138694196000,4.480196044921875,0.876922607421875,-0.1947784423828125,-0.4415435791015625
1639426138704216000,4.490216064453125,0.8834686279296875,-0.1917572021484375,-0.4462890625
1639426138714236000,4.50023583984375,0.8921356201171875,-0.16448974609375,-0.4371795654296875
1639426138724256000,4.510256103515625,0.8963775634765625,-0.1971893310546875,-0.4322357177734375
1639426138734276000,4.520276123046875,0.8977203369140625,-0.209747314453125,-0.4180450439453125
1639426138744297000,4.530296875,0.8970489501953125,-0.2039794921875,-0.400421142578125
1639426138754317000,4.540317138671875,0.8851165771484375,-0.20233154296875,-0.404571533203125
1639426138764337200,4.550337158203125,0.8782958984375,-0.1909942626953125,-0.4151458740234375
1639426138774356700,4.560356689453125,0.8853607177734375,-0.169036865234375,-0.4333038330078125
1639426138784376800,4.570376953125,0.9105377197265625,-0.1427001953125,-0.463470458984375
1639426138794397000,4.58039697265625,0.9441680908203125,-0.1637725830078125,-0.5065155029296875
1639426138804416800,4.590416748046875,0.9515380859375,-0.179901123046875,-0.5477752685546875
1639426138814436900,4.600436767578125,0.9218597412109375,-0.20135498046875,-0.5761260986328125
1639426138824457000,4.61045703125,0.8779449462890625,-0.220245361328125,-0.55682373046875
1639426138834477000,4.62047705078125,0.8402862548828125,-0.2230682373046875,-0.5062713623046875
1639426138844497000,4.630496826171875,0.81494140625,-0.2127685546875,-0.484130859375
1639426138854517000,4.64051708984375,0.810577392578125,-0.2013702392578125,-0.479949951171875
1639426138864537000,4.650537109375,0.8222503662109375,-0.2242889404296875,-0.467864990234375
1639426138874558200,4.66055810546875,0.8383026123046875,-0.2416839599609375,-0.4787750244140625
1639426138884578300,4.670578369140625,0.855377197265625,-0.2398681640625,-0.486602783203125
1639426138894598100,4.68059814453125,0.8854522705078125,-0.2332916259765625,-0.498779296875
1639426138904618200,4.6906181640625,0.9179229736328125,-0.22161865234375,-0.516143798828125
1639426138914638300,4.700638427734375,0.9435882568359375,-0.2270965576171875,-0.5261688232421875
1639426138924658200,4.710658203125,0.956146240234375,-0.23712158203125,-0.524566650390625
1639426138934678300,4.72067822265625,0.945526123046875,-0.22503662109375,-0.515472412109375
1639426138944698000,4.730697998046875,0.9144287109375,-0.2276458740234375,-0.507781982421875
1639426138954718200,4.74071826171875,0.88128662109375,-0.2348175048828125,-0.481903076171875
1639426138964738000,4.750738037109375,0.8544464111328125,-0.2369384765625,-0.4511566162109375
1639426138974758100,4.760758056640625,0.8522186279296875,-0.250946044921875,-0.44219970703125
1639426138984778200,4.7707783203125,0.860504150390625,-0.2596893310546875,-0.4496917724609375
1639426138994798000,4.780798095703125,0.8794708251953125,-0.2621612548828125,-0.462982177734375
1639426139004819200,4.790819091796875,0.9048004150390625,-0.2912445068359375,-0.476531982421875
1639426139014839300,4.80083935546875,0.945648193359375,-0.2830810546875,-0.4981842041015625
1639426139024859100,4.810859130859375,0.9448699951171875,-0.2607879638671875,-0.492828369140625
1639426139034879200,4.820879150390625,0.90374755859375,-0.2479248046875,-0.478546142578125
1639426139044899300,4.8308994140625,0.86767578125,-0.2354278564453125,-0.4669647216796875
1639426139054919200,4.840919189453125,0.84649658203125,-0.2375640869140625,-0.451568603515625
1639426139064939300,4.850939208984375,0.855712890625,-0.2306365966796875,-0.43231201171875
1639426139074959400,4.86095947265625,0.8604583740234375,-0.212554931640625,-0.4220733642578125
1639426139084979200,4.870979248046875,0.832855224609375,-0.2082366943359375,-0.4145050048828125
1639426139094999300,4.880999267578125,0.806060791015625,-0.207061767578125,-0.40643310546875
1639426139105019100,4.89101904296875,0.8036041259765625,-0.2040252685546875,-0.3996124267578125
1639426139115039200,4.901039306640625,0.81341552734375,-0.198638916015625,-0.398681640625
1639426139125059000,4.91105908203125,0.8065948486328125,-0.197662353515625,-0.4113311767578125
1639426139135080200,4.921080078125,0.7846832275390625,-0.2040252685546875,-0.4302978515625
1639426139145100000,4.93110009765625,0.7740325927734375,-0.2104644775390625,-0.4444580078125
1639426139155120000,4.9411201171875,0.7857208251953125,-0.2122039794921875,-0.453582763671875
1639426139165140200,4.95114013671875,0.8127288818359375,-0.217041015625,-0.4521942138671875
1639426139175160000,4.96116015625,0.827880859375,-0.2242431640625,-0.4423675537109375
1639426139185180200,4.97118017578125,0.8192138671875,-0.2351837158203125,-0.43682861328125
1639426139195200300,4.9812001953125,0.80523681640625,-0.24462890625,-0.440277099609375
1639426139205220000,4.99122021484375,0.806488037109375,-0.2536163330078125,-0.46044921875
1639426139215240200,5.001240234375,0.8174591064453125,-0.26055908203125,-0.485870361328125
1639426139225260300,5.01126025390625,0.8331146240234375,-0.2741546630859375,-0.5018157958984375
1639426139235280400,5.0212802734375,0.8431854248046875,-0.295257568359375,-0.5048828125
1639426139245300200,5.03130029296875,0.8369903564453125,-0.310089111328125,-0.5015869140625
1639426139255320300,5.0413203125,0.80633544921875,-0.3193359375,-0.4939422607421875
1639426139265341200,5.051341064453125,0.772613525390625,-0.3199310302734375,-0.4887237548828125
1639426139275361300,5.061361328125,0.7629852294921875,-0.3234710693359375,-0.4868011474609375
1639426139285381400,5.07138134765625,0.7671051025390625,-0.3407440185546875,-0.484619140625
1639426139295401200,5.081401123046875,0.78350830078125,-0.356109619140625,-0.4875640869140625
1639426139305421000,5.091421142578125,0.7900543212890625,-0.371307373046875,-0.498046875
1639426139315441200,5.101441162109375,0.7868194580078125,-0.389495849609375,-0.5063629150390625
1639426139325461200,5.111461181640625,0.786865234375,-0.40753173828125,-0.505859375
1639426139335481000,5.121481201171875,0.798919677734375,-0.4132080078125,-0.5008087158203125
1639426139345501200,5.131501220703125,0.80206298828125,-0.4123077392578125,-0.495361328125
1639426139355521300,5.141521240234375,0.78997802734375,-0.40216064453125,-0.4981536865234375
1639426139365541000,5.151541015625,0.7653656005859375,-0.380401611328125,-0.519073486328125
1639426139375561200,5.161561279296875,0.731719970703125,-0.361968994140625,-0.552459716796875
1639426139385581300,5.171581298828125,0.6981658935546875,-0.3491973876953125,-0.5795745849609375
1639426139395602200,5.181602294921875,0.6685791015625,-0.34576416015625,-0.5949859619140625
1639426139405622300,5.191622314453125,0.63671875,-0.351654052734375,-0.5760040283203125
1639426139415642400,5.201642333984375,0.622955322265625,-0.366180419921875,-0.53851318359375
1639426139425662200,5.211662109375,0.6324615478515625,-0.3858489990234375,-0.514739990234375
1639426139435682300,5.221682373046875,0.653289794921875,-0.3901519775390625,-0.4959716796875
1639426139445702400,5.231702392578125,0.6841278076171875,-0.3863372802734375,-0.5017852783203125
1639426139455722000,5.241721923828125,0.690093994140625,-0.3866729736328125,-0.52496337890625
1639426139465742000,5.2517421875,0.6994476318359375,-0.397613525390625,-0.541412353515625
1639426139475762200,5.26176220703125,0.6459808349609375,-0.42791748046875,-0.535064697265625
1639426139485782300,5.2717822265625,0.5594482421875,-0.462005615234375,-0.5412139892578125
1639426139495802000,5.281802001953125,0.5274658203125,-0.4886474609375,-0.5473785400390625
1639426139505822200,5.291822265625,0.51678466796875,-0.50347900390625,-0.5445709228515625
1639426139515843000,5.301843017578125,0.5044708251953125,-0.5186920166015625,-0.5336761474609375
1639426139525863200,5.31186328125,0.4784088134765625,-0.53155517578125,-0.524017333984375
1639426139535883300,5.32188330078125,0.462188720703125,-0.54669189453125,-0.514007568359375
1639426139545903000,5.331903076171875,0.4657745361328125,-0.5633697509765625,-0.4860687255859375
1639426139555923200,5.341923095703125,0.47027587890625,-0.5743865966796875,-0.4525146484375
1639426139565943300,5.351943359375,0.4532470703125,-0.5680694580078125,-0.41357421875
1639426139575963100,5.361963134765625,0.445404052734375,-0.5173492431640625,-0.3847198486328125
1639426139585983200,5.371983154296875,0.44940185546875,-0.3907928466796875,-0.3422698974609375
1639426139596003300,5.38200341796875,0.407318115234375,-0.25335693359375,-0.2561492919921875
1639426139606023400,5.3920234375,0.3917999267578125,-0.2817840576171875,-0.2509918212890625
1639426139616043000,5.40204296875,0.4252777099609375,-0.361175537109375,-0.3248138427734375
1639426139626063000,5.41206298828125,0.413604736328125,-0.4878692626953125,-0.352813720703125
1639426139636083200,5.422083251953125,0.341522216796875,-0.595855712890625,-0.397430419921875
1639426139646104000,5.43210400390625,0.2634124755859375,-0.6610107421875,-0.4626617431640625
1639426139656124200,5.442124267578125,0.1483612060546875,-0.7293243408203125,-0.5277557373046875
1639426139666144300,5.452144287109375,0.021087646484375,-0.82562255859375,-0.589263916015625
1639426139676164000,5.4621640625,-0.034393310546875,-0.9616851806640625,-0.6799163818359375
1639426139686184200,5.47218408203125,0.002716064453125,-1.1163177490234375,-0.792694091796875
1639426139696204300,5.482204345703125,0.07183837890625,-1.2553253173828125,-0.9298248291015625
1639426139706224000,5.49222412109375,0.135101318359375,-1.3385467529296875,-1.070281982421875
1639426139716244200,5.502244140625,0.154327392578125,-1.3836822509765625,-1.165557861328125
1639426139726264300,5.512264404296875,0.1436920166015625,-1.3311004638671875,-1.0966949462890625
1639426139736284200,5.5222841796875,0.12457275390625,-1.2212982177734375,-0.9257965087890625
1639426139746304300,5.53230419921875,0.1183319091796875,-1.13134765625,-0.810821533203125
1639426139756324400,5.542324462890625,0.1204376220703125,-1.08013916015625,-0.79205322265625
1639426139766345200,5.55234521484375,0.11688232421875,-1.0481719970703125,-0.8174591064453125
1639426139776365300,5.562365234375,0.135467529296875,-1.0135040283203125,-0.8812103271484375
1639426139786385400,5.572385498046875,0.1526336669921875,-0.94970703125,-0.9226226806640625
1639426139796405200,5.5824052734375,0.1612701416015625,-0.8828582763671875,-0.923736572265625
1639426139806425000,5.592425048828125,0.1658935546875,-0.837799072265625,-0.8798370361328125
1639426139816445200,5.602445068359375,0.1400909423828125,-0.8089447021484375,-0.8216400146484375
1639426139826465000,5.612465087890625,0.092315673828125,-0.808441162109375,-0.7723846435546875
1639426139836485000,5.622485107421875,0.0314788818359375,-0.8172607421875,-0.733642578125
1639426139846505200,5.632505126953125,-0.0306549072265625,-0.787139892578125,-0.661529541015625
1639426139856525000,5.642525146484375,-0.059906005859375,-0.7280426025390625,-0.6010589599609375
1639426139866545200,5.652545166015625,-0.057220458984375,-0.6532135009765625,-0.5775909423828125
1639426139876564500,5.662564453125,-0.021759033203125,-0.5715484619140625,-0.5686492919921875
1639426139886585600,5.672585693359375,0.06024169921875,-0.4771575927734375,-0.5563812255859375
1639426139896605400,5.68260546875,0.15478515625,-0.3817291259765625,-0.5356292724609375
1639426139906625500,5.69262548828125,0.241241455078125,-0.3113555908203125,-0.5182342529296875
1639426139916645600,5.702645751953125,0.323486328125,-0.235870361328125,-0.4979705810546875
1639426139926665500,5.71266552734375,0.4029388427734375,-0.174957275390625,-0.53521728515625
1639426139936685600,5.722685546875,0.525054931640625,-0.1500091552734375,-0.5907440185546875
1639426139946705700,5.73270556640625,0.645751953125,-0.198760986328125,-0.6309356689453125
1639426139956725500,5.7427255859375,0.7504425048828125,-0.2794342041015625,-0.6555328369140625
1639426139966745300,5.752745361328125,0.857757568359375,-0.346466064453125,-0.68414306640625
1639426139976765400,5.762765380859375,0.9553070068359375,-0.396759033203125,-0.7378082275390625
1639426139986785500,5.77278564453125,0.9992523193359375,-0.4620361328125,-0.820159912109375
1639426139996805400,5.782805419921875,0.94439697265625,-0.52783203125,-0.931243896484375
1639426140006826500,5.792826416015625,0.7883148193359375,-0.5802764892578125,-1.0428314208984375
1639426140016846300,5.802846435546875,0.583892822265625,-0.6442718505859375,-1.0593109130859375
1639426140026866400,5.812866455078125,0.408966064453125,-0.6893463134765625,-0.93084716796875
1639426140036886500,5.822886474609375,0.310791015625,-0.728515625,-0.7837677001953125
1639426140046906400,5.83290625,0.2001190185546875,-0.728240966796875,-0.701507568359375
1639426140056926500,5.842926513671875,0.0500335693359375,-0.7359771728515625,-0.6534576416015625
1639426140066946600,5.852946533203125,-0.0846710205078125,-0.7689971923828125,-0.6081695556640625
1639426140076966400,5.86296630859375,-0.1531219482421875,-0.7745513916015625,-0.5489501953125
1639426140086986500,5.872986572265625,-0.1683349609375,-0.727935791015625,-0.50140380859375
1639426140097006600,5.883006591796875,-0.1675872802734375,-0.62908935546875,-0.4702606201171875
1639426140107026700,5.893026611328125,-0.0919647216796875,-0.53466796875,-0.4238433837890625
1639426140117046500,5.903046630859375,0.0977020263671875,-0.4440155029296875,-0.3129425048828125
1639426140127067600,5.913067626953125,0.3784637451171875,-0.367034912109375,-0.2525634765625
1639426140137087500,5.92308740234375,0.50775146484375,-0.34405517578125,-0.3823394775390625
1639426140147107600,5.933107666015625,0.3303375244140625,-0.3232269287109375,-0.6317901611328125
1639426140157127400,5.94312744140625,0.0643463134765625,-0.3006744384765625,-0.8349151611328125
1639426140167147500,5.9531474609375,-0.06024169921875,-0.318389892578125,-0.91162109375
1639426140177167400,5.96316748046875,-0.0791473388671875,-0.2082061767578125,-0.8567962646484375
1639426140187187500,5.9731875,-0.1255340576171875,-0.0480499267578125,-0.7925567626953125
1639426140197207600,5.98320751953125,-0.2752685546875,-0.0016937255859375,-0.9268646240234375
1639426140207227400,5.993227294921875,-0.4610443115234375,0.0771026611328125,-1.1747283935546875
1639426140217247500,6.00324755859375,-0.6555938720703125,0.133087158203125,-1.1998443603515625
1639426140227267600,6.013267578125,-0.7313385009765625,0.174652099609375,-0.9908294677734375
1639426140237287400,6.023287353515625,-0.639801025390625,0.215179443359375,-0.7553863525390625
1639426140247307500,6.0333076171875,-0.684173583984375,0.2194976806640625,-0.7743682861328125
1639426140257328400,6.043328369140625,-0.8048553466796875,0.2121734619140625,-0.9500732421875
1639426140267348500,6.053348388671875,-0.933807373046875,0.2182769775390625,-0.9644927978515625
1639426140277368600,6.06336865234375,-1.046142578125,0.2637481689453125,-0.78125
1639426140287388700,6.073388671875,-1.1669769287109375,0.3134002685546875,-0.556915283203125
1639426140297408500,6.083408447265625,-1.2486572265625,0.3228912353515625,-0.4082794189453125
1639426140307428600,6.0934287109375,-1.2639007568359375,0.2089691162109375,-0.47705078125
1639426140317448400,6.103448486328125,-1.1203765869140625,0.0154876708984375,-0.570770263671875
1639426140327468300,6.11346826171875,-1.1685791015625,-0.171295166015625,-0.378753662109375
1639426140337488400,6.12348828125,-1.0530242919921875,-0.315948486328125,-0.248260498046875
1639426140347508500,6.133508544921875,-0.933624267578125,-0.3423919677734375,-0.27801513671875
1639426140357528600,6.143528564453125,-0.9207763671875,-0.391998291015625,-0.4191741943359375
1639426140367549400,6.153549560546875,-0.9252471923828125,-0.50213623046875,-0.7036895751953125
1639426140377569500,6.163569580078125,-0.98382568359375,-0.57061767578125,-0.7559967041015625
1639426140387589400,6.17358935546875,-1.01348876953125,-0.6533203125,-0.89166259765625
1639426140397609500,6.183609375,-0.9466552734375,-0.721832275390625,-0.96905517578125
1639426140407629600,6.193629638671875,-0.8723907470703125,-0.698699951171875,-0.9261474609375
1639426140417649400,6.2036494140625,-0.7854156494140625,-0.6084747314453125,-0.9234466552734375
1639426140427669500,6.21366943359375,-0.7004852294921875,-0.46453857421875,-0.9520416259765625
1639426140437689600,6.223689697265625,-0.5942230224609375,-0.3432159423828125,-0.9163665771484375
1639426140447709400,6.23370947265625,-0.4993133544921875,-0.1882171630859375,-0.7516937255859375
1639426140457729500,6.2437294921875,-0.480743408203125,-0.0637969970703125,-0.4939117431640625
1639426140467749600,6.25374951171875,-0.5094757080078125,-0.0160980224609375,-0.3839874267578125
1639426140477769500,6.26376953125,-0.52105712890625,-0.0128326416015625,-0.3716888427734375
1639426140487790600,6.27379052734375,-0.4978179931640625,0.01641845703125,-0.34234619140625
1639426140497810700,6.283810791015625,-0.47064208984375,0.0473175048828125,-0.3411407470703125
1639426140507830300,6.293830322265625,-0.4701080322265625,0.066162109375,-0.2949371337890625
1639426140517850400,6.303850341796875,-0.5033416748046875,0.05426025390625,-0.2643280029296875
1639426140527870500,6.313870361328125,-0.5664215087890625,0.0492706298828125,-0.2681732177734375
1639426140537890600,6.323890625,-0.674591064453125,-0.0057220458984375,-0.287750244140625
1639426140547910400,6.333910400390625,-0.7600555419921875,-0.0966949462890625,-0.336944580078125
1639426140557930500,6.343930419921875,-0.8084259033203125,-0.1343841552734375,-0.3997344970703125
1639426140567950600,6.35395068359375,-0.86444091796875,-0.1667633056640625,-0.4525299072265625
1639426140577970400,6.363970458984375,-0.97802734375,-0.1884002685546875,-0.493377685546875
1639426140587990500,6.373990478515625,-1.095977783203125,-0.2104339599609375,-0.550262451171875
1639426140598010600,6.3840107421875,-1.21044921875,-0.2160491943359375,-0.5856170654296875
1639426140608031500,6.394031494140625,-1.3106689453125,-0.237945556640625,-0.5986785888671875
1639426140618051600,6.404051513671875,-1.3598480224609375,-0.28253173828125,-0.611083984375
1639426140628071400,6.414071533203125,-1.392669677734375,-0.2945404052734375,-0.660430908203125
1639426140638091500,6.424091552734375,-1.4269866943359375,-0.3021087646484375,-0.68731689453125
1639426140648111600,6.434111572265625,-1.3998260498046875,-0.3008270263671875,-0.686553955078125
1639426140658131700,6.444131591796875,-1.3295745849609375,-0.2962188720703125,-0.6964569091796875
1639426140668151300,6.4541513671875,-1.25946044921875,-0.2982177734375,-0.689422607421875
1639426140678171400,6.46417138671875,-1.2135162353515625,-0.3046722412109375,-0.6658935546875
1639426140688191500,6.47419140625,-1.1705780029296875,-0.3146209716796875,-0.646240234375
1639426140698211300,6.48421142578125,-1.1119537353515625,-0.3133544921875,-0.6246795654296875
1639426140708231400,6.4942314453125,-1.0311279296875,-0.308502197265625,-0.599822998046875
1639426140718251500,6.50425146484375,-0.92608642578125,-0.2941436767578125,-0.588653564453125
1639426140728272400,6.5142724609375,-0.858642578125,-0.291900634765625,-0.574066162109375
1639426140738292500,6.52429248046875,-0.8307952880859375,-0.2933502197265625,-0.5691986083984375
1639426140748312600,6.5343125,-0.812835693359375,-0.2889862060546875,-0.5680999755859375
1639426140758332400,6.54433251953125,-0.7826385498046875,-0.2631683349609375,-0.5594635009765625
1639426140768352500,6.5543525390625,-0.7541351318359375,-0.2456512451171875,-0.5531005859375
1639426140778372600,6.56437255859375,-0.7259979248046875,-0.2209320068359375,-0.5430908203125
1639426140788392400,6.574392333984375,-0.6949310302734375,-0.213714599609375,-0.538238525390625
1639426140798412500,6.58441259765625,-0.6718292236328125,-0.2042999267578125,-0.53369140625
1639426140808432600,6.5944326171875,-0.6741790771484375,-0.1964111328125,-0.53326416015625
1639426140818452500,6.604452392578125,-0.673248291015625,-0.1969146728515625,-0.5344390869140625
1639426140828472300,6.614472412109375,-0.672271728515625,-0.2067108154296875,-0.529449462890625
1639426140838493700,6.62449365234375,-0.659149169921875,-0.2161865234375,-0.5250244140625
1639426140848513500,6.634513427734375,-0.6229705810546875,-0.2136077880859375,-0.52178955078125
1639426140858533400,6.644533447265625,-0.6044464111328125,-0.21710205078125,-0.526397705078125
1639426140868553500,6.654553466796875,-0.622955322265625,-0.215179443359375,-0.53179931640625
1639426140878573300,6.6645732421875,-0.642547607421875,-0.211944580078125,-0.5522613525390625
1639426140888593400,6.674593505859375,-0.6708831787109375,-0.2066802978515625,-0.5823822021484375
1639426140898613500,6.684613525390625,-0.702911376953125,-0.1965789794921875,-0.60418701171875
1639426140908633300,6.69463330078125,-0.74169921875,-0.189117431640625,-0.6244964599609375
1639426140918653400,6.7046533203125,-0.774017333984375,-0.1837158203125,-0.6300506591796875
1639426140928673500,6.714673583984375,-0.799407958984375,-0.18829345703125,-0.63983154296875
1639426140938693600,6.724693603515625,-0.8056793212890625,-0.193878173828125,-0.6322174072265625
1639426140948713500,6.73471337890625,-0.774688720703125,-0.1946563720703125,-0.6197052001953125
1639426140958734600,6.744734619140625,-0.76934814453125,-0.2061004638671875,-0.6186676025390625
1639426140968754400,6.75475439453125,-0.7708587646484375,-0.200775146484375,-0.602813720703125
1639426140978774500,6.7647744140625,-0.7871856689453125,-0.19879150390625,-0.599945068359375
1639426140988794600,6.774794677734375,-0.7891845703125,-0.201416015625,-0.5906219482421875
1639426140998814500,6.784814453125,-0.7709808349609375,-0.20751953125,-0.58197021484375
1639426141008834300,6.794834228515625,-0.7626953125,-0.207122802734375,-0.570098876953125
1639426141018854400,6.8048544921875,-0.75384521484375,-0.2228851318359375,-0.5733795166015625
1639426141028874500,6.81487451171875,-0.6998748779296875,-0.225311279296875,-0.5662994384765625
1639426141038894300,6.824894287109375,-0.6601104736328125,-0.23583984375,-0.5803680419921875
1639426141048914400,6.83491455078125,-0.6367340087890625,-0.242218017578125,-0.5805816650390625
1639426141058934500,6.8449345703125,-0.60113525390625,-0.246429443359375,-0.573455810546875
1639426141068955400,6.854955322265625,-0.5835113525390625,-0.25018310546875,-0.568450927734375
1639426141078975500,6.8649755859375,-0.6030120849609375,-0.244293212890625,-0.571685791015625
1639426141088995600,6.87499560546875,-0.6372833251953125,-0.2461090087890625,-0.5936431884765625
1639426141099015400,6.885015380859375,-0.675323486328125,-0.239715576171875,-0.6294097900390625
1639426141109035500,6.895035400390625,-0.695526123046875,-0.2172393798828125,-0.6680450439453125
1639426141119055600,6.9050556640625,-0.686676025390625,-0.2230987548828125,-0.714569091796875
1639426141129075500,6.915075439453125,-0.654510498046875,-0.2498626708984375,-0.7204437255859375
1639426141139095600,6.925095458984375,-0.634063720703125,-0.2795867919921875,-0.729827880859375
1639426141149115600,6.93511572265625,-0.6190185546875,-0.2910003662109375,-0.7317047119140625
1639426141159135200,6.94513525390625,-0.6082305908203125,-0.3072509765625,-0.72607421875
1639426141169155300,6.9551552734375,-0.6626434326171875,-0.271240234375,-0.7366485595703125
1639426141179175400,6.965175537109375,-0.7386474609375,-0.2495269775390625,-0.76983642578125
1639426141189196300,6.9751962890625,-0.7691192626953125,-0.25341796875,-0.7591094970703125
1639426141199216400,6.98521630859375,-0.8020782470703125,-0.2472076416015625,-0.75677490234375
1639426141209236500,6.995236572265625,-0.8428802490234375,-0.2308807373046875,-0.7444610595703125
1639426141219256300,7.00525634765625,-0.896820068359375,-0.2201995849609375,-0.7325286865234375
1639426141229276400,7.0152763671875,-0.9264068603515625,-0.2122955322265625,-0.7163543701171875
1639426141239296500,7.025296630859375,-0.9348297119140625,-0.1990966796875,-0.712066650390625
1639426141249316400,7.03531640625,-0.9315643310546875,-0.2057037353515625,-0.672882080078125
1639426141259336400,7.04533642578125,-0.9116668701171875,-0.2092132568359375,-0.633941650390625
1639426141269356500,7.0553564453125,-0.9001007080078125,-0.200164794921875,-0.60711669921875
1639426141279376400,7.06537646484375,-0.9196624755859375,-0.1759490966796875,-0.573394775390625
1639426141289396500,7.075396484375,-0.93121337890625,-0.1558685302734375,-0.5459136962890625
1639426141299417600,7.08541748046875,-0.906402587890625,-0.138458251953125,-0.525848388671875
1639426141309437400,7.0954375,-0.8803558349609375,-0.1305999755859375,-0.4886474609375
1639426141319457500,7.10545751953125,-0.859375,-0.1294708251953125,-0.4465484619140625
1639426141329477600,7.1154775390625,-0.8351593017578125,-0.1229248046875,-0.408660888671875
1639426141339497500,7.12549755859375,-0.81134033203125,-0.1007843017578125,-0.3798828125
1639426141349517300,7.135517333984375,-0.8102874755859375,-0.1015777587890625,-0.368438720703125
1639426141359537400,7.145537353515625,-0.8038330078125,-0.0895538330078125,-0.351104736328125
1639426141369557500,7.1555576171875,-0.787567138671875,-0.0908966064453125,-0.3473358154296875
1639426141379577300,7.165577392578125,-0.763580322265625,-0.089691162109375,-0.332000732421875
1639426141389597400,7.175597412109375,-0.75439453125,-0.0882720947265625,-0.317413330078125
1639426141399617500,7.185617431640625,-0.7509307861328125,-0.0959014892578125,-0.3087615966796875
1639426141409638400,7.195638427734375,-0.729949951171875,-0.0999603271484375,-0.31396484375
1639426141419658500,7.205658447265625,-0.7180023193359375,-0.100341796875,-0.329254150390625
1639426141429678300,7.21567822265625,-0.7263641357421875,-0.0949249267578125,-0.339324951171875
1639426141439698400,7.225698486328125,-0.73687744140625,-0.09552001953125,-0.3525543212890625
1639426141449718500,7.235718505859375,-0.7524871826171875,-0.0923919677734375,-0.3594512939453125
1639426141459738400,7.24573828125,-0.7736358642578125,-0.0851593017578125,-0.3551483154296875
1639426141469758500,7.255758544921875,-0.7794189453125,-0.073272705078125,-0.352203369140625
1639426141479778600,7.265778564453125,-0.782257080078125,-0.07037353515625,-0.3483123779296875
1639426141489798700,7.275798583984375,-0.7810211181640625,-0.0653228759765625,-0.3498992919921875
1639426141499818500,7.285818603515625,-0.785858154296875,-0.063079833984375,-0.3488311767578125
1639426141509838300,7.29583837890625,-0.79254150390625,-0.064849853515625,-0.3586273193359375
1639426141519859500,7.305859375,-0.803741455078125,-0.063995361328125,-0.376129150390625
1639426141529879300,7.31587939453125,-0.82049560546875,-0.0668182373046875,-0.3932037353515625
1639426141539899400,7.3258994140625,-0.840240478515625,-0.0736541748046875,-0.408477783203125
1639426141549919500,7.33591943359375,-0.86175537109375,-0.081085205078125,-0.4246673583984375
1639426141559939300,7.345939208984375,-0.884368896484375,-0.093017578125,-0.4399871826171875
1639426141569959400,7.35595947265625,-0.913360595703125,-0.105438232421875,-0.457427978515625
1639426141579979500,7.3659794921875,-0.9354248046875,-0.11395263671875,-0.47308349609375
1639426141589999400,7.375999267578125,-0.955352783203125,-0.1263427734375,-0.4936981201171875
1639426141600019500,7.38601953125,-0.9682159423828125,-0.143280029296875,-0.52191162109375
1639426141610039600,7.39603955078125,-0.98101806640625,-0.1614990234375,-0.5450439453125
1639426141620059400,7.406059326171875,-0.9908599853515625,-0.1824951171875,-0.5646820068359375
1639426141630080500,7.41608056640625,-0.9993133544921875,-0.2015380859375,-0.578826904296875
1639426141640100400,7.426100341796875,-1.0003509521484375,-0.2185211181640625,-0.5947113037109375
1639426141650120400,7.436120361328125,-0.9834442138671875,-0.2335662841796875,-0.6063995361328125
1639426141660140500,7.446140625,-0.95782470703125,-0.2364349365234375,-0.6078338623046875
1639426141670160600,7.45616064453125,-0.9304046630859375,-0.25128173828125,-0.6181488037109375
1639426141680180500,7.466180419921875,-0.909881591796875,-0.24700927734375,-0.61822509765625
1639426141690200600,7.47620068359375,-0.8964691162109375,-0.2459716796875,-0.6166534423828125
1639426141700220400,7.486220458984375,-0.87786865234375,-0.23968505859375,-0.615447998046875
1639426141710240300,7.496240234375,-0.859527587890625,-0.2269287109375,-0.6094970703125
1639426141720260400,7.50626025390625,-0.84527587890625,-0.2113494873046875,-0.6002960205078125
1639426141730280400,7.516280517578125,-0.829437255859375,-0.19720458984375,-0.5863037109375
1639426141740300500,7.526300537109375,-0.8130645751953125,-0.1883697509765625,-0.5720062255859375
1639426141750321400,7.5363212890625,-0.799468994140625,-0.181121826171875,-0.557464599609375
1639426141760341500,7.546341552734375,-0.7939300537109375,-0.1754608154296875,-0.5426025390625
1639426141770361300,7.556361328125,-0.7909698486328125,-0.1718597412109375,-0.5326385498046875
1639426141780381400,7.56638134765625,-0.7842254638671875,-0.16845703125,-0.522613525390625
1639426141790401500,7.576401611328125,-0.776275634765625,-0.1645050048828125,-0.5140228271484375
1639426141800421400,7.58642138671875,-0.7712860107421875,-0.1626739501953125,-0.505828857421875
1639426141810441500,7.59644140625,-0.7679443359375,-0.1617584228515625,-0.5012969970703125
1639426141820461600,7.606461669921875,-0.7618255615234375,-0.163604736328125,-0.5001983642578125
1639426141830481400,7.6164814453125,-0.7512359619140625,-0.1671295166015625,-0.4989776611328125
1639426141840501500,7.62650146484375,-0.7459716796875,-0.171234130859375,-0.5023040771484375
1639426141850521600,7.636521484375,-0.746551513671875,-0.173187255859375,-0.503021240234375
1639426141860542500,7.64654248046875,-0.752197265625,-0.17388916015625,-0.502838134765625
1639426141870562600,7.6565625,-0.758453369140625,-0.173370361328125,-0.503082275390625
1639426141880582700,7.666582763671875,-0.76361083984375,-0.1734161376953125,-0.504364013671875
1639426141890602500,7.6766025390625,-0.7693023681640625,-0.1756591796875,-0.5052337646484375
1639426141900622600,7.68662255859375,-0.782379150390625,-0.1783447265625,-0.506744384765625
1639426141910642700,7.696642578125,-0.80133056640625,-0.183746337890625,-0.5092620849609375
1639426141920662500,7.70666259765625,-0.8186492919921875,-0.1888885498046875,-0.5127105712890625
1639426141930682600,7.7166826171875,-0.8303680419921875,-0.192413330078125,-0.517333984375
1639426141940702700,7.72670263671875,-0.8346710205078125,-0.1949462890625,-0.52093505859375
1639426141950722600,7.73672265625,-0.83343505859375,-0.197235107421875,-0.526580810546875
1639426141960742400,7.746742431640625,-0.829620361328125,-0.1958770751953125,-0.5322265625
1639426141970763800,7.756763671875,-0.82745361328125,-0.195770263671875,-0.5345001220703125
1639426141980783400,7.766783447265625,-0.8267669677734375,-0.1935272216796875,-0.5332489013671875
1639426141990803500,7.776803466796875,-0.8294525146484375,-0.1917724609375,-0.53009033203125
1639426142000823600,7.786823486328125,-0.8335418701171875,-0.19073486328125,-0.526702880859375
1639426142010843400,7.796843505859375,-0.8353271484375,-0.1904754638671875,-0.522308349609375
1639426142020863500,7.806863525390625,-0.835601806640625,-0.1898651123046875,-0.5203094482421875
1639426142030883600,7.816883544921875,-0.8369140625,-0.188934326171875,-0.5179443359375
1639426142040903700,7.826903564453125,-0.8375701904296875,-0.18817138671875,-0.5169219970703125
1639426142050923500,7.836923583984375,-0.838531494140625,-0.1868743896484375,-0.5165252685546875
1639426142060943600,7.846943603515625,-0.839813232421875,-0.1854095458984375,-0.514984130859375
1639426142070963700,7.856963623046875,-0.8429412841796875,-0.183502197265625,-0.514007568359375
1639426142080984600,7.866984619140625,-0.8481597900390625,-0.181182861328125,-0.51348876953125
1639426142091004700,7.877004638671875,-0.851837158203125,-0.180023193359375,-0.5113372802734375
1639426142101024500,7.8870244140625,-0.8563690185546875,-0.1790771484375,-0.5096588134765625
1639426142111044600,7.897044677734375,-0.8558807373046875,-0.1786651611328125,-0.5084075927734375
1639426142121064700,7.907064697265625,-0.85546875,-0.17840576171875,-0.506256103515625
1639426142131084800,7.917084716796875,-0.85357666015625,-0.1775360107421875,-0.5045318603515625
1639426142141104400,7.9271044921875,-0.8514251708984375,-0.178680419921875,-0.50396728515625
1639426142151124500,7.93712451171875,-0.8480072021484375,-0.1788787841796875,-0.502655029296875
1639426142161144600,7.94714453125,-0.8466949462890625,-0.1785125732421875,-0.5033111572265625
1639426142171164400,7.957164306640625,-0.843353271484375,-0.1778564453125,-0.50323486328125
1639426142181184500,7.9671845703125,-0.838043212890625,-0.1770172119140625,-0.50335693359375
1639426142191205400,7.977205322265625,-0.835296630859375,-0.1764678955078125,-0.5044708251953125
1639426142201225500,7.9872255859375,-0.8308258056640625,-0.1759796142578125,-0.5039825439453125
1639426142211245600,7.99724560546875,-0.826629638671875,-0.1755828857421875,-0.5026397705078125
1639426142221265700,8.007265625,-0.8224945068359375,-0.1751251220703125,-0.4999847412109375
1639426142231285500,8.017285400390625,-0.8195343017578125,-0.17431640625,-0.497711181640625
1639426142241305600,8.0273056640625,-0.8163299560546875,-0.1734619140625,-0.495269775390625
1639426142251325700,8.03732568359375,-0.814483642578125,-0.17254638671875,-0.49285888671875
1639426142261345500,8.047345458984376,-0.8134765625,-0.17340087890625,-0.492095947265625
1639426142271365600,8.05736572265625,-0.813385009765625,-0.1736907958984375,-0.49176025390625
1639426142281385700,8.0673857421875,-0.814788818359375,-0.1740875244140625,-0.494598388671875
1639426142291406600,8.077406494140625,-0.819061279296875,-0.17547607421875,-0.4960784912109375
1639426142301426700,8.0874267578125,-0.8233642578125,-0.1760711669921875,-0.500152587890625
1639426142311446800,8.09744677734375,-0.8269805908203125,-0.1772308349609375,-0.5023193359375
1639426142321466600,8.107466552734374,-0.8311309814453125,-0.1799163818359375,-0.504547119140625
1639426142331486500,8.117486572265625,-0.833465576171875,-0.18096923828125,-0.507354736328125
1639426142341506600,8.127506591796875,-0.8374176025390625,-0.1829376220703125,-0.5093231201171875
1639426142351526400,8.1375263671875,-0.8399810791015625,-0.18524169921875,-0.51129150390625
1639426142361546500,8.14754638671875,-0.8414764404296875,-0.1868133544921875,-0.513641357421875
1639426142371566600,8.157566650390624,-0.84033203125,-0.18804931640625,-0.5148162841796875
1639426142381586400,8.16758642578125,-0.8394012451171875,-0.1891021728515625,-0.5165863037109375
1639426142391606500,8.1776064453125,-0.8383941650390625,-0.189483642578125,-0.518280029296875
1639426142401626600,8.187626708984375,-0.838714599609375,-0.1891632080078125,-0.518829345703125
1639426142411647500,8.1976474609375,-0.8356781005859375,-0.19000244140625,-0.5206298828125
1639426142421667600,8.20766748046875,-0.8344268798828125,-0.189605712890625,-0.5200958251953125
1639426142431687700,8.217687744140624,-0.831085205078125,-0.1892242431640625,-0.520263671875
1639426142441707500,8.22770751953125,-0.8307647705078125,-0.1874542236328125,-0.51983642578125
1639426142451727600,8.2377275390625,-0.830535888671875,-0.1868743896484375,-0.5173797607421875
1639426142461747700,8.247747802734375,-0.82843017578125,-0.186065673828125,-0.5163421630859375
1639426142471767600,8.257767578125,-0.826812744140625,-0.184967041015625,-0.5139007568359375
1639426142481787600,8.26778759765625,-0.826507568359375,-0.1825408935546875,-0.5118408203125
1639426142491807500,8.277807373046874,-0.8256683349609375,-0.1810455322265625,-0.5098724365234375
1639426142501827600,8.28782763671875,-0.8251190185546875,-0.1802520751953125,-0.5079498291015625
1639426142511848700,8.2978486328125,-0.82598876953125,-0.1798858642578125,-0.506683349609375
1639426142521868500,8.30786865234375,-0.8261566162109375,-0.1795806884765625,-0.5067291259765625
1639426142531888400,8.317888427734376,-0.8267669677734375,-0.1793212890625,-0.5054931640625
1639426142541908500,8.327908447265624,-0.8271026611328125,-0.1793670654296875,-0.504669189453125
1639426142551928600,8.337928466796875,-0.8269805908203125,-0.17919921875,-0.5043792724609375
1639426142561948400,8.347948486328125,-0.827178955078125,-0.179229736328125,-0.5036468505859375
1639426142571968500,8.357968505859375,-0.8278656005859375,-0.179931640625,-0.503082275390625
1639426142581988600,8.367988525390626,-0.829132080078125,-0.180023193359375,-0.5028839111328125
1639426142592008700,8.3780087890625,-0.8311767578125,-0.1806793212890625,-0.5024261474609375
1639426142602028500,8.388028564453125,-0.831024169921875,-0.1809539794921875,-0.502777099609375
1639426142612048600,8.398048583984375,-0.8324127197265625,-0.1811370849609375,-0.5019683837890625
1639426142622069500,8.408069580078125,-0.83282470703125,-0.182464599609375,-0.502685546875
1639426142632089600,8.418089599609376,-0.8308258056640625,-0.1833038330078125,-0.5036163330078125
1639426142642109700,8.428109619140624,-0.8308868408203125,-0.1824798583984375,-0.5048828125
1639426142652129500,8.438129638671874,-0.8318939208984375,-0.182861328125,-0.5049591064453125
1639426142662149600,8.448149658203125,-0.83355712890625,-0.181793212890625,-0.504608154296875
1639426142672169700,8.458169677734375,-0.833221435546875,-0.182098388671875,-0.506805419921875
1639426142682189600,8.468189453125,-0.834747314453125,-0.18084716796875,-0.5079803466796875
1639426142692209400,8.47820947265625,-0.83551025390625,-0.1809539794921875,-0.5087738037109375
1639426142702229500,8.4882294921875,-0.8357086181640625,-0.1802978515625,-0.5087738037109375
1639426142712249600,8.49824951171875,-0.833892822265625,-0.181549072265625,-0.509796142578125
1639426142722270500,8.5082705078125,-0.8338165283203125,-0.18121337890625,-0.5097198486328125
1639426142732290600,8.51829052734375,-0.8328094482421875,-0.182159423828125,-0.5081634521484375
1639426142742310400,8.528310302734376,-0.832763671875,-0.18170166015625,-0.5086517333984375
1639426142752330500,8.53833056640625,-0.8318328857421875,-0.1820068359375,-0.50799560546875
1639426142762350600,8.5483505859375,-0.829620361328125,-0.1815185546875,-0.5075531005859375
1639426142772370700,8.55837060546875,-0.8299407958984375,-0.1817626953125,-0.508697509765625
1639426142782390500,8.568390625,-0.829833984375,-0.1815185546875,-0.50885009765625
1639426142792410600,8.57841064453125,-0.830047607421875,-0.1819000244140625,-0.50872802734375
1639426142802430700,8.5884306640625,-0.8309783935546875,-0.1813201904296875,-0.510101318359375
1639426142812450600,8.598450439453124,-0.831329345703125,-0.1812286376953125,-0.510986328125
1639426142822470700,8.608470703125,-0.8311004638671875,-0.1813812255859375,-0.50994873046875
1639426142832490800,8.61849072265625,-0.830657958984375,-0.182464599609375,-0.5094146728515625
1639426142842511600,8.62851171875,-0.8311004638671875,-0.1828155517578125,-0.5102996826171875
1639426142852531700,8.63853173828125,-0.83154296875,-0.1819000244140625,-0.5088043212890625
1639426142862551800,8.6485517578125,-0.831634521484375,-0.1805267333984375,-0.5073699951171875
1639426142872571400,8.6585712890625,-0.8325653076171875,-0.180938720703125,-0.5060272216796875
1639426142882591500,8.668591552734375,-0.832794189453125,-0.18048095703125,-0.5042572021484375
1639426142892611600,8.678611572265625,-0.8320159912109375,-0.1804351806640625,-0.5053863525390625
1639426142902631400,8.68863134765625,-0.8314971923828125,-0.180419921875,-0.503326416015625
1639426142912651500,8.698651611328126,-0.8317718505859375,-0.1804962158203125,-0.50433349609375
1639426142922671600,8.708671630859374,-0.8321990966796875,-0.1803131103515625,-0.505340576171875
1639426142932691500,8.71869140625,-0.83197021484375,-0.1799163818359375,-0.50421142578125
1639426142942712600,8.728712646484375,-0.8313446044921875,-0.1801300048828125,-0.50372314453125
1639426142952732700,8.738732666015625,-0.8318328857421875,-0.1812744140625,-0.5051116943359375
1639426142962752500,8.74875244140625,-0.831146240234375,-0.18084716796875,-0.50531005859375
1639426142972772600,8.758772705078124,-0.83050537109375,-0.182098388671875,-0.50518798828125
1639426142982792700,8.768792724609375,-0.831329345703125,-0.1818084716796875,-0.506805419921875
1639426142992812500,8.7788125,-0.8316192626953125,-0.1819305419921875,-0.506683349609375
1639426143002832600,8.78883251953125,-0.8309326171875,-0.182403564453125,-0.507049560546875
1639426143012852700,8.798852783203126,-0.8316497802734375,-0.18182373046875,-0.50799560546875
1639426143022872600,8.80887255859375,-0.8326873779296875,-0.180389404296875,-0.507476806640625
1639426143032892400,8.818892333984374,-0.8333282470703125,-0.180877685546875,-0.5067291259765625
1639426143042913800,8.828913818359375,-0.8330535888671875,-0.18072509765625,-0.5065765380859375
1639426143052933600,8.83893359375,-0.8336181640625,-0.181488037109375,-0.50701904296875
1639426143062953500,8.848953369140625,-0.8340606689453125,-0.1822509765625,-0.5072479248046875
1639426143072973600,8.8589736328125,-0.8330078125,-0.182037353515625,-0.5067291259765625
1639426143082993400,8.868993408203124,-0.8318634033203125,-0.181854248046875,-0.5065155029296875
1639426143093013500,8.879013427734375,-0.8309326171875,-0.1819000244140625,-0.5062408447265625
1639426143103033600,8.88903369140625,-0.8304901123046875,-0.1817779541015625,-0.50634765625
1639426143113053400,8.899053466796875,-0.830657958984375,-0.181549072265625,-0.50567626953125
1639426143123073500,8.909073486328126,-0.830718994140625,-0.18121337890625,-0.5068817138671875
1639426143133093600,8.91909375,-0.831817626953125,-0.1808624267578125,-0.50750732421875
1639426143143113700,8.92911376953125,-0.831085205078125,-0.180419921875,-0.5076446533203125
1639426143153134600,8.939134521484375,-0.8307037353515625,-0.18048095703125,-0.5072021484375
1639426143163154700,8.94915478515625,-0.8310394287109375,-0.1804656982421875,-0.5075225830078125
1639426143173174500,8.959174560546876,-0.8328704833984375,-0.1799163818359375,-0.509063720703125
1639426143183194600,8.969194580078126,-0.8326416015625,-0.1797027587890625,-0.50677490234375
1639426143193214700,8.979214599609374,-0.8326568603515625,-0.1794891357421875,-0.5073699951171875
1639426143203234600,8.989234619140625,-0.8311920166015625,-0.1781463623046875,-0.5068817138671875
1639426143213254700,8.999254638671875,-0.8296051025390625,-0.1790924072265625,-0.50634765625
1639426143223274500,9.0092744140625,-0.828765869140625,-0.178955078125,-0.5073699951171875
1639426143233294600,9.019294677734376,-0.82855224609375,-0.1791534423828125,-0.5078582763671875
1639426143243314400,9.029314453125,-0.8294219970703125,-0.1785736083984375,-0.5077056884765625
1639426143253334500,9.03933447265625,-0.830413818359375,-0.177947998046875,-0.5089874267578125
1639426143263355400,9.04935546875,-0.832366943359375,-0.1785888671875,-0.5079345703125
1639426143273375500,9.05937548828125,-0.832611083984375,-0.1793060302734375,-0.5081634521484375
1639426143283395600,9.0693955078125,-0.8331451416015625,-0.179412841796875,-0.5072021484375
1639426143293415400,9.07941552734375,-0.833099365234375,-0.179443359375,-0.5063323974609375
1639426143303435500,9.089435546875,-0.83319091796875,-0.1798553466796875,-0.505889892578125
1639426143313455600,9.09945556640625,-0.83319091796875,-0.1795806884765625,-0.5058746337890625
1639426143323475700,9.109475830078125,-0.8332672119140625,-0.1797332763671875,-0.50543212890625
1639426143333495600,9.11949560546875,-0.832550048828125,-0.1803436279296875,-0.5068206787109375
1639426143343515600,9.129515625,-0.8318634033203125,-0.17987060546875,-0.5071563720703125
1639426143353536500,9.13953662109375,-0.8319091796875,-0.18072509765625,-0.5066070556640625
1639426143363556600,9.149556640625,-0.831207275390625,-0.1802825927734375,-0.507720947265625
1639426143373576700,9.15957666015625,-0.83160400390625,-0.1807403564453125,-0.507232666015625
1639426143383596500,9.169596435546875,-0.83154296875,-0.1815338134765625,-0.50799560546875
1639426143393616600,9.17961669921875,-0.83154296875,-0.1812896728515625,-0.5079193115234375
1639426143403636500,9.189636474609374,-0.8312530517578125,-0.182098388671875,-0.507568359375
1639426143413656600,9.199656494140624,-0.83160400390625,-0.1820831298828125,-0.5083160400390625
1639426143423676400,9.209676513671875,-0.8327789306640625,-0.1821136474609375,-0.50787353515625
1639426143433696500,9.219696533203125,-0.831634521484375,-0.1805267333984375,-0.507781982421875
1639426143443716600,9.229716552734375,-0.8324127197265625,-0.1804351806640625,-0.5070953369140625
1639426143453736400,9.239736328125,-0.8323211669921875,-0.1797943115234375,-0.5069427490234375
1639426143463757600,9.249757568359374,-0.8313446044921875,-0.179595947265625,-0.507049560546875
1639426143473777400,9.25977734375,-0.831146240234375,-0.179473876953125,-0.5073699951171875
1639426143483797500,9.269797607421875,-0.8306121826171875,-0.1791839599609375,-0.507843017578125
1639426143493817600,9.279817626953125,-0.83026123046875,-0.1786346435546875,-0.5072174072265625
1639426143503837700,9.289837646484376,-0.8308868408203125,-0.178741455078125,-0.50848388671875
1639426143513857500,9.299857421875,-0.8325347900390625,-0.1781463623046875,-0.5075531005859375
1639426143523877600,9.309877685546875,-0.832794189453125,-0.177581787109375,-0.5075225830078125
1639426143533897700,9.319897705078125,-0.832550048828125,-0.1775665283203125,-0.5080108642578125
1639426143543917600,9.32991748046875,-0.8322296142578125,-0.178070068359375,-0.5074310302734375
1639426143553937700,9.339937744140625,-0.8315887451171875,-0.1779937744140625,-0.5078277587890625
1639426143563958500,9.34995849609375,-0.8314666748046875,-0.1781158447265625,-0.5077056884765625
1639426143573978600,9.359978515625,-0.8331298828125,-0.178802490234375,-0.508270263671875
1639426143583998700,9.369998779296875,-0.83184814453125,-0.1796875,-0.5071563720703125
1639426143594018600,9.3800185546875,-0.831390380859375,-0.179718017578125,-0.5072784423828125
1639426143604038400,9.390038330078125,-0.8323974609375,-0.17974853515625,-0.507476806640625
1639426143614058500,9.40005859375,-0.83154296875,-0.179443359375,-0.50750732421875
1639426143624078600,9.41007861328125,-0.8306427001953125,-0.180145263671875,-0.507293701171875
1639426143634098400,9.420098388671875,-0.8307647705078125,-0.1801300048828125,-0.5066375732421875
1639426143644118500,9.430118408203125,-0.8307342529296875,-0.1797943115234375,-0.50628662109375
1639426143654138600,9.440138671875,-0.831817626953125,-0.18023681640625,-0.50738525390625
1639426143664158500,9.450158447265625,-0.832489013671875,-0.1794281005859375,-0.507293701171875
1639426143674179600,9.4601796875,-0.831329345703125,-0.179534912109375,-0.507354736328125
1639426143684199700,9.47019970703125,-0.8320159912109375,-0.1800994873046875,-0.507171630859375
1639426143694219500,9.480219482421875,-0.832305908203125,-0.1793975830078125,-0.5073699951171875
1639426143704239600,9.490239501953125,-0.83282470703125,-0.1805419921875,-0.50714111328125
1639426143714259700,9.500259765625,-0.8327789306640625,-0.180328369140625,-0.50811767578125
1639426143724279600,9.510279541015626,-0.833831787109375,-0.179901123046875,-0.508056640625
1639426143734299600,9.520299560546874,-0.8333282470703125,-0.1793975830078125,-0.508636474609375
1639426143744319700,9.53031982421875,-0.83258056640625,-0.1792755126953125,-0.5074615478515625
1639426143754339600,9.540339599609375,-0.832427978515625,-0.1793975830078125,-0.507568359375
1639426143764359400,9.550359375,-0.83355712890625,-0.179290771484375,-0.5078125
1639426143774380800,9.560380859375,-0.83282470703125,-0.1791229248046875,-0.507659912109375
1639426143784400400,9.570400390625,-0.833984375,-0.1787872314453125,-0.5072784423828125
1639426143794420500,9.58042041015625,-0.832550048828125,-0.1794281005859375,-0.5071563720703125
1639426143804440600,9.590440673828125,-0.831207275390625,-0.179107666015625,-0.5073699951171875
1639426143814460400,9.60046044921875,-0.830047607421875,-0.17889404296875,-0.50653076171875
1639426143824480500,9.61048046875,-0.82977294921875,-0.1788787841796875,-0.50738525390625
1639426143834500600,9.62050048828125,-0.8289337158203125,-0.17828369140625,-0.5074005126953125
1639426143844520400,9.6305205078125,-0.8296051025390625,-0.1780242919921875,-0.508148193359375
1639426143854540500,9.64054052734375,-0.8303070068359375,-0.1783599853515625,-0.508209228515625
1639426143864560600,9.650560546875,-0.83154296875,-0.1786346435546875,-0.507598876953125
1639426143874580700,9.660580810546875,-0.832427978515625,-0.178558349609375,-0.507720947265625
1639426143884602000,9.67060205078125,-0.8330535888671875,-0.1784515380859375,-0.507568359375
1639426143894622200,9.680622314453124,-0.8324127197265625,-0.1777801513671875,-0.50714111328125
1639426143904642000,9.69064208984375,-0.8303985595703125,-0.1782379150390625,-0.5078887939453125
1639426143914662100,9.700662109375,-0.8316802978515625,-0.1780853271484375,-0.5071868896484375
1639426143924682200,9.71068212890625,-0.831451416015625,-0.178070068359375,-0.5073699951171875
1639426143934702000,9.7207021484375,-0.8316192626953125,-0.178802490234375,-0.508056640625
1639426143944722200,9.73072216796875,-0.830657958984375,-0.1787872314453125,-0.5087738037109375
1639426143954742300,9.7407421875,-0.8314666748046875,-0.17877197265625,-0.508270263671875
1639426143964762000,9.75076220703125,-0.831085205078125,-0.179840087890625,-0.5078277587890625
1639426143974783200,9.760783203125,-0.8319244384765625,-0.179595947265625,-0.50750732421875
1639426143984803000,9.770802978515626,-0.83306884765625,-0.1800689697265625,-0.506561279296875
1639426143994823200,9.7808232421875,-0.833343505859375,-0.179779052734375,-0.5074005126953125
1639426144004843300,9.79084326171875,-0.8336029052734375,-0.18011474609375,-0.5073394775390625
1639426144014863000,9.800863037109375,-0.833892822265625,-0.1797637939453125,-0.5070343017578125
1639426144024883000,9.810883056640625,-0.8343353271484375,-0.1786956787109375,-0.506744384765625
1639426144034903000,9.820903076171875,-0.8338623046875,-0.1789703369140625,-0.5072174072265625
1639426144044923100,9.830923095703126,-0.833343505859375,-0.1793212890625,-0.506622314453125
1639426144054943000,9.84094287109375,-0.831573486328125,-0.1794281005859375,-0.5065460205078125
1639426144064963000,9.850963134765625,-0.832000732421875,-0.1789093017578125,-0.5075531005859375
1639426144074984200,9.860984130859375,-0.8317718505859375,-0.17926025390625,-0.5071258544921875
1639426144085004000,9.871004150390625,-0.8311767578125,-0.1790008544921875,-0.50714111328125
1639426144095024000,9.881024169921876,-0.831573486328125,-0.1793060302734375,-0.5081024169921875
1639426144105044200,9.891044189453124,-0.8308563232421875,-0.1783599853515625,-0.5079193115234375
1639426144115064000,9.90106396484375,-0.831878662109375,-0.1777191162109375,-0.508026123046875
1639426144125084200,9.911084228515625,-0.832427978515625,-0.1780853271484375,-0.5078887939453125
1639426144135104300,9.921104248046875,-0.833038330078125,-0.1779022216796875,-0.50750732421875
1639426144145124000,9.9311240234375,-0.833282470703125,-0.177337646484375,-0.50848388671875
1639426144155144200,9.941144287109376,-0.8325347900390625,-0.178375244140625,-0.5082855224609375
1639426144165164300,9.951164306640624,-0.8329010009765625,-0.177764892578125,-0.5074920654296875
1639426144175185200,9.96118505859375,-0.8311309814453125,-0.177886962890625,-0.507598876953125
1639426144185205200,9.971205322265625,-0.8315582275390625,-0.1790618896484375,-0.5079803466796875
1639426144195225000,9.98122509765625,-0.8321685791015625,-0.1786346435546875,-0.5083160400390625
1639426144205245000,9.991244873046876,-0.83319091796875,-0.1781463623046875,-0.508026123046875
1639426144215265000,10.00126513671875,-0.8325347900390625,-0.1788482666015625,-0.5076751708984375
1639426144225285000,10.01128515625,-0.83001708984375,-0.1786346435546875,-0.507568359375
1639426144235305000,10.021304931640625,-0.8307952880859375,-0.178680419921875,-0.5078887939453125
1639426144245325000,10.031324951171875,-0.83013916015625,-0.178802490234375,-0.507965087890625
1639426144255345200,10.04134521484375,-0.8307952880859375,-0.1779632568359375,-0.50823974609375
1639426144265365200,10.051365234375,-0.831939697265625,-0.178497314453125,-0.5079345703125
1639426144275385000,10.061385009765624,-0.8320465087890625,-0.1787109375,-0.50927734375
1639426144285406200,10.07140625,-0.83135986328125,-0.1788787841796875,-0.50958251953125
1639426144295426000,10.081426025390625,-0.83245849609375,-0.1792755126953125,-0.5083770751953125
1639426144305446100,10.091446044921875,-0.8325347900390625,-0.1786956787109375,-0.508148193359375
1639426144315466200,10.10146630859375,-0.834442138671875,-0.178619384765625,-0.5096282958984375
1639426144325486000,10.111486083984374,-0.833740234375,-0.1791839599609375,-0.508636474609375
1639426144335506200,10.121506103515625,-0.8317108154296875,-0.1785888671875,-0.508056640625
1639426144345526300,10.1315263671875,-0.8331451416015625,-0.17852783203125,-0.5078582763671875
1639426144355546000,10.141546142578125,-0.8317413330078125,-0.179351806640625,-0.5076446533203125
1639426144365566000,10.15156591796875,-0.831146240234375,-0.1794281005859375,-0.5078887939453125
1639426144375587300,10.16158740234375,-0.8317413330078125,-0.1780548095703125,-0.5081024169921875
1639426144385607000,10.17160693359375,-0.8319091796875,-0.1778106689453125,-0.5075836181640625
1639426144395627000,10.181626953125,-0.83245849609375,-0.1775054931640625,-0.5066986083984375
1639426144405647000,10.191647216796875,-0.831939697265625,-0.178314208984375,-0.5074462890625
1639426144415667000,10.2016669921875,-0.831878662109375,-0.1778106689453125,-0.507476806640625
1639426144425687000,10.21168701171875,-0.830657958984375,-0.1788177490234375,-0.5076751708984375
1639426144435707100,10.22170703125,-0.8302001953125,-0.178314208984375,-0.5069427490234375
1639426144445727200,10.231727294921875,-0.8304290771484375,-0.1779327392578125,-0.5084686279296875
1639426144455747000,10.2417470703125,-0.830322265625,-0.177520751953125,-0.5087738037109375
1639426144465767200,10.25176708984375,-0.830841064453125,-0.1776275634765625,-0.5074462890625
1639426144475788000,10.2617880859375,-0.8315582275390625,-0.1778411865234375,-0.508697509765625
1639426144485808000,10.27180810546875,-0.8342437744140625,-0.177947998046875,-0.50860595703125
1639426144495828200,10.281828125,-0.8327178955078125,-0.177886962890625,-0.50823974609375
1639426144505848000,10.29184814453125,-0.8310699462890625,-0.1780853271484375,-0.5086517333984375
1639426144515868200,10.3018681640625,-0.8304901123046875,-0.177581787109375,-0.5083160400390625
1639426144525888300,10.31188818359375,-0.8303070068359375,-0.17803955078125,-0.5075836181640625
1639426144535908000,10.321908203125,-0.8320770263671875,-0.178375244140625,-0.5078277587890625
1639426144545928000,10.331927978515624,-0.831634521484375,-0.178863525390625,-0.507843017578125
1639426144555948000,10.341947998046875,-0.8314056396484375,-0.1787567138671875,-0.5076904296875
1639426144565968100,10.351968017578125,-0.8309173583984375,-0.1787109375,-0.50830078125
1639426144575989000,10.361989013671876,-0.8311614990234375,-0.178619384765625,-0.507781982421875
1639426144586009000,10.372009033203126,-0.832061767578125,-0.1781005859375,-0.5080413818359375
1639426144596029000,10.38202880859375,-0.8335113525390625,-0.1774139404296875,-0.5081329345703125
1639426144606049000,10.392049072265625,-0.8331451416015625,-0.178009033203125,-0.508575439453125
1639426144616069000,10.402069091796875,-0.833526611328125,-0.1783294677734375,-0.5081787109375
1639426144626089200,10.412089111328125,-0.83355712890625,-0.178619384765625,-0.50848388671875
1639426144636109000,10.422109130859376,-0.8329925537109375,-0.178466796875,-0.5081787109375
1639426144646129200,10.432129150390624,-0.8320770263671875,-0.1783599853515625,-0.50909423828125
1639426144656149200,10.442149169921874,-0.832427978515625,-0.1783599853515625,-0.5084228515625
1639426144666169000,10.452169189453125,-0.8331451416015625,-0.17877197265625,-0.508056640625
1639426144676190200,10.462190185546875,-0.832244873046875,-0.17822265625,-0.507110595703125
1639426144686210000,10.4722099609375,-0.83135986328125,-0.1782989501953125,-0.5070037841796875
1639426144696230100,10.482230224609374,-0.8312225341796875,-0.178497314453125,-0.5079193115234375
1639426144706250200,10.492250244140624,-0.8300933837890625,-0.177459716796875,-0.508575439453125
1639426144716270300,10.502270263671875,-0.830902099609375,-0.177001953125,-0.5091400146484375
1639426144726290200,10.512290283203125,-0.8319091796875,-0.177032470703125,-0.5076446533203125
1639426144736310000,10.52231005859375,-0.8323822021484375,-0.1767730712890625,-0.5077362060546875
1639426144746330000,10.532330078125,-0.8326873779296875,-0.1768798828125,-0.5081634521484375
1639426144756350000,10.542349853515624,-0.8318634033203125,-0.17730712890625,-0.5081024169921875
1639426144766371000,10.55237109375,-0.83233642578125,-0.177459716796875,-0.5075531005859375
1639426144776391000,10.562390869140625,-0.8322601318359375,-0.1777496337890625,-0.5072021484375
1639426144786411000,10.572410888671875,-0.8320770263671875,-0.1776885986328125,-0.506744384765625
1639426144796431000,10.58243115234375,-0.8317413330078125,-0.1776275634765625,-0.5074615478515625
1639426144806451200,10.592451171875,-0.83154296875,-0.177337646484375,-0.507476806640625
1639426144816471000,10.602470947265624,-0.832672119140625,-0.178070068359375,-0.5085601806640625
1639426144826491100,10.6124912109375,-0.8312225341796875,-0.177703857421875,-0.508697509765625
1639426144836511200,10.62251123046875,-0.8321685791015625,-0.1775665283203125,-0.5087127685546875
1639426144846531000,10.632531005859375,-0.831787109375,-0.1775054931640625,-0.5093231201171875
1639426144856551200,10.64255126953125,-0.831787109375,-0.1769256591796875,-0.5090789794921875
1639426144866572000,10.652572021484374,-0.8310546875,-0.176666259765625,-0.5089569091796875
1639426144876592000,10.662592041015625,-0.8319549560546875,-0.177154541015625,-0.5092010498046875
1639426144886612200,10.6726123046875,-0.83160400390625,-0.1778564453125,-0.5087127685546875
1639426144896632000,10.682632080078125,-0.8331756591796875,-0.178192138671875,-0.5083465576171875
1639426144906652000,10.69265185546875,-0.8334503173828125,-0.177581787109375,-0.50848388671875
1639426144916672000,10.702672119140624,-0.83233642578125,-0.1771697998046875,-0.5080718994140625
1639426144926692000,10.712692138671875,-0.8329010009765625,-0.1778717041015625,-0.507537841796875
1639426144936712000,10.7227119140625,-0.8339385986328125,-0.1771392822265625,-0.5069122314453125
1639426144946732000,10.73273193359375,-0.83160400390625,-0.1769256591796875,-0.5082244873046875
1639426144956752100,10.742752197265625,-0.83087158203125,-0.1770782470703125,-0.50750732421875
1639426144966773000,10.75277294921875,-0.8306732177734375,-0.1778106689453125,-0.508087158203125
1639426144976793000,10.76279296875,-0.83123779296875,-0.1785888671875,-0.5083160400390625
1639426144986813200,10.772813232421875,-0.831298828125,-0.177581787109375,-0.5085601806640625
1639426144996833000,10.7828330078125,-0.8310089111328125,-0.1774749755859375,-0.5084381103515625
1639426145006853000,10.79285302734375,-0.8312530517578125,-0.17742919921875,-0.507537841796875
1639426145016873200,10.802873291015626,-0.832244873046875,-0.1772918701171875,-0.5078125
1639426145026893000,10.81289306640625,-0.8328399658203125,-0.1779632568359375,-0.50799560546875
1639426145036913200,10.8229130859375,-0.8317108154296875,-0.1777801513671875,-0.5072479248046875
1639426145046933200,10.832933349609375,-0.8300933837890625,-0.177215576171875,-0.5068359375
1639426145056953000,10.842953125,-0.8310546875,-0.176971435546875,-0.50732421875
1639426145066974200,10.85297412109375,-0.8319549560546875,-0.177001953125,-0.5087127685546875
1639426145076994300,10.862994384765624,-0.8308258056640625,-0.177581787109375,-0.50982666015625
1639426145087014000,10.873013916015625,-0.833526611328125,-0.1773681640625,-0.5092010498046875
1639426145097034000,10.883033935546875,-0.8333587646484375,-0.17742919921875,-0.50909423828125
1639426145107054000,10.89305419921875,-0.833831787109375,-0.178375244140625,-0.5089569091796875
1639426145117074000,10.903073974609375,-0.83294677734375,-0.1780242919921875,-0.508819580078125
1639426145127094000,10.913093994140626,-0.8324127197265625,-0.17681884765625,-0.5082244873046875
1639426145137114000,10.923114013671874,-0.83087158203125,-0.17730712890625,-0.50787353515625
1639426145147134000,10.933134033203125,-0.8304290771484375,-0.1767730712890625,-0.508544921875
1639426145157155000,10.943155029296875,-0.832275390625,-0.1768646240234375,-0.507659912109375
1639426145167175200,10.953175048828125,-0.8301849365234375,-0.1766510009765625,-0.5079345703125
1639426145177195000,10.963195068359376,-0.8297882080078125,-0.176513671875,-0.5082550048828125
1639426145187215000,10.973215087890624,-0.829620361328125,-0.1768798828125,-0.5078277587890625
1639426145197235200,10.983235107421875,-0.830810546875,-0.17626953125,-0.5077362060546875
1639426145207255000,10.993255126953125,-0.832244873046875,-0.1762237548828125,-0.508453369140625
1639426145217275100,11.003275146484375,-0.83282470703125,-0.1768951416015625,-0.507476806640625
1639426145227295200,11.013295166015626,-0.8337860107421875,-0.1775360107421875,-0.5077362060546875
1639426145237315000,11.023315185546876,-0.83270263671875,-0.177490234375,-0.5072174072265625
1639426145247335000,11.0333349609375,-0.8332061767578125,-0.177703857421875,-0.507110595703125
1639426145257356300,11.043356201171875,-0.8340911865234375,-0.177886962890625,-0.5062103271484375
1639426145267376000,11.053376220703125,-0.83380126953125,-0.17724609375,-0.5064849853515625
1639426145277396000,11.06339599609375,-0.831939697265625,-0.177642822265625,-0.507232666015625
1639426145287416000,11.073416015625,-0.8325042724609375,-0.1773834228515625,-0.507293701171875
1639426145297436000,11.083435791015624,-0.8331298828125,-0.17742919921875,-0.5075836181640625
1639426145307456000,11.0934560546875,-0.832611083984375,-0.1772613525390625,-0.508087158203125
1639426145317476000,11.10347607421875,-0.8320159912109375,-0.1772308349609375,-0.507781982421875
1639426145327496000,11.113495849609375,-0.8320770263671875,-0.17608642578125,-0.508575439453125
1639426145337516000,11.12351611328125,-0.8323974609375,-0.1761627197265625,-0.5087127685546875
1639426145347536100,11.1335361328125,-0.8327789306640625,-0.175811767578125,-0.508697509765625
1639426145357557000,11.143556884765625,-0.8327178955078125,-0.1763763427734375,-0.5087127685546875
1639426145367577000,11.1535771484375,-0.8328094482421875,-0.17633056640625,-0.5080718994140625
1639426145377597200,11.16359716796875,-0.8317108154296875,-0.176544189453125,-0.5073089599609375
1639426145387617000,11.173616943359375,-0.8317718505859375,-0.1773529052734375,-0.5076141357421875
1639426145397637000,11.18363720703125,-0.83197021484375,-0.1775665283203125,-0.5083465576171875
1639426145407657200,11.1936572265625,-0.83154296875,-0.17724609375,-0.507781982421875
1639426145417677000,11.203677001953125,-0.8316497802734375,-0.177734375,-0.5069732666015625
1639426145427697200,11.213697265625,-0.8314056396484375,-0.17755126953125,-0.5081787109375
1639426145437717000,11.223717041015625,-0.8307647705078125,-0.1780242919921875,-0.5090789794921875
1639426145447738000,11.233738037109376,-0.83056640625,-0.177001953125,-0.50885009765625
1639426145457758200,11.24375830078125,-0.8314361572265625,-0.17742919921875,-0.5088653564453125
1639426145467778000,11.253778076171875,-0.8314971923828125,-0.176788330078125,-0.5087738037109375
1639426145477798000,11.2637978515625,-0.83135986328125,-0.176788330078125,-0.5077972412109375
1639426145487818000,11.27381787109375,-0.8318939208984375,-0.177490234375,-0.5083465576171875
1639426145497838000,11.283838134765626,-0.8321685791015625,-0.1771697998046875,-0.5079498291015625
1639426145507858000,11.29385791015625,-0.8320770263671875,-0.177154541015625,-0.5074920654296875
1639426145517878000,11.3038779296875,-0.83367919921875,-0.17724609375,-0.506927490234375
1639426145527898000,11.313898193359375,-0.8325042724609375,-0.17706298828125,-0.5072174072265625
1639426145537919000,11.3239189453125,-0.83270263671875,-0.1772003173828125,-0.5084381103515625
1639426145547939000,11.33393896484375,-0.834014892578125,-0.1772613525390625,-0.5075531005859375
1639426145557959200,11.343959228515626,-0.8345489501953125,-0.1775665283203125,-0.508270263671875
1639426145567979000,11.35397900390625,-0.8343353271484375,-0.1767578125,-0.508026123046875
1639426145577999000,11.3639990234375,-0.8328857421875,-0.176788330078125,-0.5091705322265625
1639426145588019200,11.374019287109375,-0.8316650390625,-0.1759490966796875,-0.508697509765625
1639426145598039000,11.3840390625,-0.8307342529296875,-0.17547607421875,-0.5078277587890625
1639426145608059100,11.39405908203125,-0.83087158203125,-0.176971435546875,-0.50689697265625
1639426145618079200,11.404079345703124,-0.82952880859375,-0.1774749755859375,-0.5073699951171875
1639426145628099000,11.41409912109375,-0.82965087890625,-0.1767730712890625,-0.5068359375
1639426145638120200,11.4241201171875,-0.831085205078125,-0.17620849609375,-0.5055694580078125
1639426145648140300,11.434140380859375,-0.8318939208984375,-0.1763763427734375,-0.505706787109375
1639426145658159900,11.444159912109376,-0.8327484130859375,-0.1757354736328125,-0.5061492919921875
1639426145668180000,11.454179931640626,-0.8317718505859375,-0.176055908203125,-0.505767822265625
1639426145678200000,11.464199951171874,-0.8326568603515625,-0.17584228515625,-0.506805419921875
1639426145688220000,11.474219970703125,-0.8327789306640625,-0.1755218505859375,-0.5072174072265625
1639426145698240000,11.484239990234375,-0.833404541015625,-0.1757965087890625,-0.5079498291015625
1639426145708260000,11.494260009765625,-0.832794189453125,-0.1762237548828125,-0.5091705322265625
1639426145718280200,11.5042802734375,-0.83349609375,-0.1770782470703125,-0.50946044921875
1639426145728300000,11.514300048828124,-0.8329925537109375,-0.1769561767578125,-0.509521484375
1639426145738321200,11.524321044921875,-0.8332977294921875,-0.177398681640625,-0.5089111328125
1639426145748341000,11.534341064453125,-0.832489013671875,-0.1776580810546875,-0.507843017578125
1639426145758361000,11.544361083984375,-0.831756591796875,-0.1772918701171875,-0.506591796875
1639426145768381200,11.554381103515626,-0.831573486328125,-0.1772308349609375,-0.508697509765625
1639426145778401000,11.564401123046874,-0.8304443359375,-0.1764068603515625,-0.5081939697265625
1639426145788421000,11.574421142578124,-0.8304595947265625,-0.1760406494140625,-0.507781982421875
1639426145798441200,11.584441162109375,-0.831451416015625,-0.176727294921875,-0.507720947265625
1639426145808461300,11.59446142578125,-0.830902099609375,-0.177093505859375,-0.5084381103515625
1639426145818481000,11.60448095703125,-0.8312225341796875,-0.1769256591796875,-0.5083465576171875
1639426145828502300,11.614502197265624,-0.831634521484375,-0.1779327392578125,-0.507568359375
1639426145838521900,11.62452197265625,-0.8320159912109375,-0.1778564453125,-0.5071868896484375
1639426145848542000,11.6345419921875,-0.833465576171875,-0.177490234375,-0.5060272216796875
1639426145858562000,11.64456201171875,-0.8342132568359375,-0.17852783203125,-0.506683349609375
1639426145868582000,11.654581787109375,-0.8330535888671875,-0.1768646240234375,-0.5068817138671875
1639426145878601500,11.6646015625,-0.83367919921875,-0.177001953125,-0.506927490234375
1639426145888621600,11.67462158203125,-0.8329925537109375,-0.1766357421875,-0.5077362060546875
1639426145898641700,11.6846416015625,-0.8328704833984375,-0.17620849609375,-0.508270263671875
1639426145908661500,11.69466162109375,-0.832000732421875,-0.177032470703125,-0.508270263671875
1639426145918682600,11.7046826171875,-0.832366943359375,-0.1765899658203125,-0.507537841796875
1639426145928702700,11.71470263671875,-0.832275390625,-0.1764984130859375,-0.50799560546875
1639426145938722600,11.72472265625,-0.8321990966796875,-0.1766815185546875,-0.5074615478515625
1639426145948742700,11.73474267578125,-0.8308868408203125,-0.1764678955078125,-0.507080078125
1639426145958762800,11.7447626953125,-0.831207275390625,-0.1754150390625,-0.506500244140625
1639426145968782600,11.754782470703125,-0.8328094482421875,-0.1761322021484375,-0.5071868896484375
1639426145978802700,11.764802734375,-0.8326568603515625,-0.1757049560546875,-0.5071868896484375
1639426145988822500,11.774822509765626,-0.833221435546875,-0.1754913330078125,-0.50726318359375
1639426145998842400,11.78484228515625,-0.8330078125,-0.1751861572265625,-0.5074615478515625
1639426146008863700,11.79486376953125,-0.8329315185546875,-0.1746368408203125,-0.5079498291015625
1639426146018883600,11.804883544921875,-0.8324432373046875,-0.1760101318359375,-0.5087432861328125
1639426146028903400,11.8149033203125,-0.8321685791015625,-0.17578125,-0.5088958740234375
1639426146038923500,11.824923583984376,-0.832550048828125,-0.176544189453125,-0.509002685546875
1639426146048943600,11.834943603515624,-0.8313140869140625,-0.176910400390625,-0.508880615234375
1639426146058963500,11.84496337890625,-0.8310394287109375,-0.1766815185546875,-0.5078887939453125
1639426146068983600,11.854983642578125,-0.82952880859375,-0.1771087646484375,-0.5078125
1639426146079003600,11.865003662109375,-0.8287506103515625,-0.177459716796875,-0.5082855224609375
1639426146089023500,11.8750234375,-0.8260345458984375,-0.1772003173828125,-0.506256103515625
1639426146099044600,11.885044677734374,-0.824981689453125,-0.1769561767578125,-0.5054473876953125
1639426146109064700,11.895064697265624,-0.823486328125,-0.1772613525390625,-0.505157470703125
1639426146119084500,11.90508447265625,-0.8260650634765625,-0.1773529052734375,-0.5061798095703125
1639426146129104600,11.915104736328125,-0.82928466796875,-0.176513671875,-0.5085906982421875
1639426146139124700,11.925124755859375,-0.831634521484375,-0.1768035888671875,-0.510009765625
1639426146149144600,11.93514453125,-0.83392333984375,-0.17742919921875,-0.5090179443359375
1639426146159164700,11.94516455078125,-0.8360595703125,-0.1763763427734375,-0.50775146484375
1639426146169184800,11.955184814453125,-0.838470458984375,-0.176788330078125,-0.5091705322265625
1639426146179204400,11.965204345703125,-0.840576171875,-0.176727294921875,-0.509552001953125
1639426146189224400,11.975224365234375,-0.8400726318359375,-0.17559814453125,-0.5088653564453125
1639426146199245600,11.98524560546875,-0.8395538330078125,-0.174713134765625,-0.5084381103515625
1639426146209265400,11.995265380859376,-0.8394317626953125,-0.1752166748046875,-0.50714111328125
1639426146219285500,12.005285400390624,-0.8380889892578125,-0.1752777099609375,-0.50732421875
1639426146229305600,12.0153056640625,-0.8379364013671875,-0.1759796142578125,-0.5064544677734375
1639426146239325400,12.025325439453125,-0.8358001708984375,-0.17578125,-0.5063629150390625
1639426146249345500,12.035345458984375,-0.8321685791015625,-0.1754913330078125,-0.505889892578125
1639426146259365600,12.04536572265625,-0.8300628662109375,-0.17547607421875,-0.506591796875
1639426146269385500,12.055385498046874,-0.8293914794921875,-0.1747283935546875,-0.5077056884765625
1639426146279405600,12.065405517578125,-0.8296966552734375,-0.1755523681640625,-0.507843017578125
1639426146289426700,12.0754267578125,-0.83001708984375,-0.175994873046875,-0.5076141357421875
1639426146299446500,12.085446533203125,-0.830078125,-0.176055908203125,-0.508148193359375
1639426146309466600,12.095466552734376,-0.82879638671875,-0.1763763427734375,-0.508544921875
1639426146319486700,12.10548681640625,-0.8270416259765625,-0.1774139404296875,-0.5093841552734375
1639426146329506600,12.115506591796875,-0.8275604248046875,-0.1762847900390625,-0.50836181640625
1639426146339526700,12.125526611328125,-0.82733154296875,-0.1759490966796875,-0.5101776123046875
1639426146349546800,12.135546630859375,-0.8285675048828125,-0.1756439208984375,-0.510894775390625
1639426146359566600,12.145566650390625,-0.830230712890625,-0.175323486328125,-0.51190185546875
1639426146369586400,12.15558642578125,-0.8295745849609375,-0.1755828857421875,-0.51141357421875
1639426146379607600,12.165607666015624,-0.827880859375,-0.175323486328125,-0.510101318359375
1639426146389627400,12.17562744140625,-0.828216552734375,-0.176361083984375,-0.5084991455078125
1639426146399647500,12.1856474609375,-0.8291473388671875,-0.1771240234375,-0.509429931640625
1639426146409667600,12.19566748046875,-0.8319091796875,-0.17706298828125,-0.51043701171875
1639426146419687400,12.2056875,-0.8353424072265625,-0.178192138671875,-0.510772705078125
1639426146429707500,12.21570751953125,-0.83624267578125,-0.1771240234375,-0.51025390625
1639426146439727600,12.2257275390625,-0.8316497802734375,-0.176055908203125,-0.508148193359375
1639426146449747500,12.23574755859375,-0.8198394775390625,-0.175567626953125,-0.506011962890625
1639426146459767600,12.245767578125,-0.808013916015625,-0.175750732421875,-0.5065765380859375
1639426146469788700,12.25578857421875,-0.8029327392578125,-0.1768951416015625,-0.5109405517578125
1639426146479808500,12.26580859375,-0.8111572265625,-0.175506591796875,-0.5142364501953125
1639426146489828600,12.27582861328125,-0.8241729736328125,-0.1750030517578125,-0.5180816650390625
1639426146499848700,12.2858486328125,-0.8385772705078125,-0.1789703369140625,-0.5216827392578125
1639426146509868500,12.29586865234375,-0.8497772216796875,-0.1835174560546875,-0.5245208740234375
1639426146519888600,12.305888671875,-0.859832763671875,-0.1827545166015625,-0.5255584716796875
1639426146529908700,12.31590869140625,-0.869384765625,-0.1786651611328125,-0.521514892578125
1639426146539928600,12.325928466796874,-0.869049072265625,-0.174224853515625,-0.5161590576171875
1639426146549948700,12.33594873046875,-0.8618011474609375,-0.171051025390625,-0.5125732421875
1639426146559969500,12.345969482421875,-0.8489532470703125,-0.1689605712890625,-0.50927734375
1639426146569989600,12.35598974609375,-0.8386688232421875,-0.1679229736328125,-0.5075531005859375
1639426146580009500,12.366009521484376,-0.83929443359375,-0.165985107421875,-0.5056304931640625
1639426146590029600,12.376029541015624,-0.842926025390625,-0.164520263671875,-0.5050811767578125
1639426146600049400,12.38604931640625,-0.843231201171875,-0.1658477783203125,-0.5096282958984375
1639426146610069500,12.396069580078125,-0.840362548828125,-0.1707611083984375,-0.5153656005859375
1639426146620089600,12.406089599609375,-0.8364715576171875,-0.174285888671875,-0.517547607421875
1639426146630109400,12.416109375,-0.8395843505859375,-0.173553466796875,-0.5197296142578125
1639426146640129500,12.426129638671876,-0.8540191650390625,-0.16998291015625,-0.523590087890625
1639426146650150700,12.436150634765625,-0.8580780029296875,-0.1654815673828125,-0.5306854248046875
1639426146660170500,12.44617041015625,-0.843597412109375,-0.1625518798828125,-0.5321807861328125
1639426146670190600,12.456190673828125,-0.8253173828125,-0.161224365234375,-0.5297698974609375
1639426146680210700,12.466210693359375,-0.8119659423828125,-0.1574249267578125,-0.526885986328125
1639426146690230500,12.47623046875,-0.80487060546875,-0.152252197265625,-0.526336669921875
1639426146700250600,12.486250732421874,-0.8048858642578125,-0.1489105224609375,-0.5237884521484375
1639426146710270700,12.496270751953125,-0.8049774169921875,-0.1449127197265625,-0.5219879150390625
1639426146720290600,12.50629052734375,-0.801605224609375,-0.14178466796875,-0.5246429443359375
1639426146730310700,12.516310546875,-0.806365966796875,-0.143096923828125,-0.52313232421875
1639426146740331800,12.526331787109376,-0.81201171875,-0.1444244384765625,-0.524200439453125
1639426146750351600,12.5363515625,-0.8095550537109375,-0.1419525146484375,-0.524261474609375
1639426146760371700,12.546371826171875,-0.8054351806640625,-0.142486572265625,-0.5223541259765625
1639426146770391600,12.5563916015625,-0.8076324462890625,-0.144683837890625,-0.5207977294921875
1639426146780411400,12.566411376953125,-0.80780029296875,-0.1486663818359375,-0.525146484375
1639426146790431500,12.576431396484375,-0.802825927734375,-0.1490631103515625,-0.53741455078125
1639426146800451600,12.58645166015625,-0.8027801513671875,-0.1534881591796875,-0.5440521240234375
1639426146810471400,12.596471435546874,-0.807586669921875,-0.1571044921875,-0.5489501953125
1639426146820491500,12.606491455078125,-0.8077545166015625,-0.157440185546875,-0.555816650390625
1639426146830512600,12.6165126953125,-0.8075103759765625,-0.1588287353515625,-0.5611724853515625
1639426146840532500,12.626532470703125,-0.810882568359375,-0.1573638916015625,-0.5628814697265625
1639426146850552600,12.636552490234376,-0.812225341796875,-0.1559295654296875,-0.56134033203125
1639426146860572700,12.64657275390625,-0.8150634765625,-0.1530303955078125,-0.5583343505859375
1639426146870592500,12.656592529296875,-0.81494140625,-0.149505615234375,-0.5537872314453125
1639426146880613600,12.666613525390625,-0.809112548828125,-0.1478271484375,-0.551025390625
1639426146890633500,12.676633544921875,-0.810150146484375,-0.1482391357421875,-0.548553466796875
1639426146900653300,12.6866533203125,-0.8058929443359375,-0.149322509765625,-0.550323486328125
1639426146910673400,12.69667333984375,-0.8005218505859375,-0.1517486572265625,-0.5532379150390625
1639426146920694300,12.7066943359375,-0.799285888671875,-0.1537322998046875,-0.5557403564453125
1639426146930714400,12.71671435546875,-0.7964630126953125,-0.1556854248046875,-0.558013916015625
1639426146940734500,12.726734375,-0.7896728515625,-0.156341552734375,-0.55975341796875
1639426146950754300,12.73675439453125,-0.7890777587890625,-0.1534576416015625,-0.5633392333984375
1639426146960774400,12.7467744140625,-0.7835540771484375,-0.14984130859375,-0.5666046142578125
1639426146970794500,12.75679443359375,-0.7765655517578125,-0.148529052734375,-0.5677032470703125
1639426146980814300,12.766814453125,-0.77911376953125,-0.1486968994140625,-0.567108154296875
1639426146990834400,12.77683447265625,-0.779052734375,-0.1531829833984375,-0.56793212890625
1639426147000854500,12.7868544921875,-0.7698211669921875,-0.1538238525390625,-0.568267822265625
1639426147010875400,12.79687548828125,-0.767974853515625,-0.1542205810546875,-0.5640869140625
1639426147020895500,12.8068955078125,-0.7697906494140625,-0.1549072265625,-0.560455322265625
1639426147030915600,12.81691552734375,-0.771697998046875,-0.15478515625,-0.5604400634765625
1639426147040935400,12.826935302734375,-0.7801513671875,-0.1553497314453125,-0.5616607666015625
1639426147050955500,12.83695556640625,-0.7864227294921875,-0.1570281982421875,-0.5671539306640625
1639426147060975600,12.8469755859375,-0.789886474609375,-0.15936279296875,-0.5729522705078125
