time,seconds_elapsed,z,y,x
1638746572949891600,0.0128916015625,-0.10581541316807269,-0.16005115348547697,-0.00710605087922886
1638746572959912400,0.022912353515625,0.05099719678759575,-0.004466911714407615,0.03001154577359557
1638746572969934300,0.032934326171875,0.16165654285550116,0.26520441295038905,0.032984058778360484
1638746572979955700,0.042955810546875,0.19230828622877597,-0.0350904199404642,-0.03413783192336559
1638746572989977600,0.0529775390625,0.14022387872636316,-0.08889410724984481,0.05964395603649318
1638746572999998500,0.06299853515625,0.12553542816042898,0.030702829673117955,0.029306192249525336
1638746573010020600,0.0730205078125,0.11187865872979164,0.016798455856693907,0.06853674420202151
1638746573020041500,0.08304150390625,0.09566577507555485,-0.021149052281631154,0.06569848856879398
1638746573030063600,0.093063720703125,0.0816553699016571,-0.07204822292169556,0.09305038667907937
1638746573040085500,0.10308544921875,0.11158698230683803,-0.033341384316049515,0.06720290178237483
1638746573050106600,0.113106689453125,0.1223024375885725,-0.05700966201014816,0.10399769622161983
1638746573060128500,0.12312841796875,0.10772212357223034,-0.07367597025400027,0.03872079406576231
1638746573070149600,0.133149658203125,0.11626549551188944,0.007884862365154548,0.041213999120984224
1638746573080171500,0.143171630859375,0.11354863776862621,-0.031241982617694883,0.0073297766325064
1638746573090192600,0.153192626953125,0.15309914239048958,0.08595991696147248,-0.2184289985762909
1638746573100214500,0.163214599609375,0.08647533740401267,0.181779804886505,-0.16837100060125812
1638746573110236700,0.173236572265625,0.01241933659017086,0.07975655054301023,0.028033158372715115
1638746573120257500,0.183257568359375,0.1392553259551525,0.04396961797205731,-0.026416242961678653
1638746573130279400,0.193279541015625,0.1284931089222431,0.08990505612436682,-0.15222553789373486
1638746573140300500,0.203300537109375,0.010787351474165915,0.09357968951649963,-0.18738069363348184
1638746573150322700,0.21332275390625,0.013991700473427772,0.1038710467678029,-0.16834869743790476
1638746573160343600,0.223343505859375,0.0659960284769535,0.12654212098494172,-0.0901460252733901
1638746573170365700,0.23336572265625,0.11949907060563564,0.07359857590254396,-0.025594971440359948
1638746573180386600,0.243386474609375,0.04463116888701915,0.09553172776657157,-0.0374535506089218
1638746573190408400,0.253408447265625,0.02201660149693489,0.006363077891664579,-0.007971727797854692
1638746573200430600,0.2634306640625,0.11676117007434367,-0.023823157728556543,-0.008272811369970441
1638746573210451700,0.27345166015625,0.1027612862944603,0.06883917948100715,-0.435395888710767
1638746573220473600,0.2834736328125,-0.2256084982842207,0.031287429194618015,-0.29827642400683835
1638746573230494500,0.293494384765625,-0.4397475080490112,-0.019272545219492166,-0.49638103022314606
1638746573240516600,0.3035166015625,-0.28670038810670373,0.037632738534151576,-0.6061383494174107
1638746573250537700,0.313537841796875,0.26526012519299985,0.5574681708052754,-0.6459573322497308
1638746573260559600,0.3235595703125,0.7321276953577995,0.916069573649019,-0.3906198314603418
1638746573270580500,0.33358056640625,0.8019605255186557,0.9085648240420967,0.01050822400553152
1638746573280602400,0.343602294921875,0.45067572929859157,0.0011229852810967712,0.548142489381507
1638746573290624500,0.35362451171875,0.11485504419207572,-0.9614014381512999,0.006294944558897986
1638746573300645600,0.363645751953125,-0.056819619330763814,-1.2668946434028445,-0.15515001050569116
1638746573310667500,0.37366748046875,-0.05248538951873779,-0.9991323261305689,0.3858103122867644
1638746573320688400,0.3836884765625,0.1544476343899965,-0.36559126173108814,0.6083171182285994
1638746573330710500,0.39371044921875,0.2828425436347723,0.09643875047573819,0.5367580487970263
1638746573340731600,0.403731689453125,0.1583393811315298,0.20632809855183584,0.47816243276968595
1638746573350753500,0.41375341796875,-0.03593523673415184,0.07943018639916553,0.5112085969988256
1638746573360775400,0.423775390625,-0.15806407132148742,-0.007588290571374818,-0.26880908637885004
1638746573370796500,0.433796630859375,-0.204977213665843,0.0463873649045825,-0.22295809337329117
1638746573380818700,0.443818603515625,-0.13441782279610634,0.13446066642398946,-0.12714697327660396
1638746573390839600,0.453839599609375,-0.0718564449429512,0.10754455678192898,-0.14063677037619055
1638746573400861400,0.463861328125,0.034834582015872,0.2569075813840143,-0.5204700175473467
1638746573410882600,0.473882568359375,0.2660603356599808,0.5674687558159232,-1.197468202085793
1638746573420904700,0.48390478515625,0.3587070551753044,0.5516188237225637,-1.2786638455212116
1638746573430925600,0.493925537109375,0.17327917611002921,0.4369734402257949,-1.3092410623535513
1638746573440947500,0.503947509765625,0.014033786049485205,0.36264815748389806,-1.4193722928941248
1638746573450969300,0.51396923828125,0.038278584989905357,0.252723317969311,-1.6977217628933488
1638746573460990700,0.52399072265625,0.07154431025385856,0.06873981075976043,-1.8010915364749729
1638746573471012600,0.5340126953125,0.07206745734512805,-0.08071088299262337,-1.6474615020781755
1638746573481033500,0.544033447265625,0.07229132922887802,-0.3315623700749129,-1.2652373777151107
1638746573491055600,0.5540556640625,0.07307283499538898,-0.5690478782335296,-0.3987825335193425
1638746573501076500,0.564076416015625,0.20494097330868244,-0.6196136613339185,0.7734967937089502
1638746573511098600,0.5740986328125,0.4896195001989603,-0.3901577669065445,1.3128192131012677
1638746573521119500,0.584119384765625,0.5046726924240589,-0.12608442207900805,1.5481442187577485
1638746573531141600,0.5941416015625,0.20265724628567694,0.10048766967351548,1.8648672585539519
1638746573541163500,0.60416357421875,-0.051938277029991146,0.21475279428157953,2.0461834645166994
1638746573551184600,0.6141845703125,-0.08732757031917572,0.05339699707147665,2.1007252020433542
1638746573561206500,0.62420654296875,0.010898410633206367,-0.17032734056711196,2.287181839634478
1638746573571227600,0.6342275390625,0.25693244183063507,-0.14581895878706128,1.6106122192390262
1638746573581249500,0.64424951171875,0.4865940148979425,-0.06057726396438665,-0.3828795195318758
1638746573591270400,0.6542705078125,0.38431086750924587,0.0370871056164382,0.19908092216886578
1638746573601292500,0.66429248046875,0.3122217828541994,0.10074537989478557,0.23289920328166333
1638746573611313700,0.674313720703125,0.03294248465895652,0.06569673500312492,0.14549622963871806
1638746573621335600,0.68433544921875,-0.2913917607933283,0.08209501256109215,0.0645165487752296
1638746573631357700,0.694357666015625,-0.30675474961996074,-0.08450046626762486,-0.07233396279420704
1638746573641378600,0.704378662109375,-0.23816285943090915,-0.32037929728142917,-0.25144306890042495
1638746573651400400,0.714400390625,-0.18580781829357146,-0.12366769805978983,-0.267082463515643
1638746573661421600,0.724421630859375,-0.1864338412374258,-0.010778912439383566,-0.148473601481691
1638746573671443500,0.734443359375,-0.011837737309932707,0.03230099700120045,-0.1915503805335611
1638746573681464600,0.744464599609375,0.18348901995718478,-0.05924039847059175,-0.008256353425513953
1638746573691486700,0.75448681640625,0.4041600618392229,0.04737552655856125,0.23683805883424355
1638746573701507600,0.764507568359375,0.37651159193515776,0.07972705958704464,0.15557247370146213
1638746573711529500,0.774529541015625,0.16846446930468081,-0.043302331436052915,0.04962947036465629
1638746573721551600,0.784551513671875,0.10045885457098483,0.07928035699916072,-0.1308342652209103
1638746573731572700,0.79457275390625,0.10090659833848475,0.01955947240209207,0.15852730491906403
1638746573741594000,0.804593994140625,0.004621814581751823,-0.10019973784391768,0.16232490710373967
1638746573751615000,0.814614990234375,0.006059738430380821,-0.07872491507348604,0.13062723487410693
1638746573761636900,0.824636962890625,0.06288637202382087,-0.061396361794928085,0.03656204512929544
1638746573771658000,0.834657958984375,0.16115034689903257,-0.08281068654977716,0.04476730768838897
1638746573781680000,0.84468017578125,0.2571259185761213,-0.08536435308796353,0.11345716009289025
1638746573791702000,0.854701904296875,0.2571183197915554,-0.10584164358787237,0.10908469889601692
1638746573801723000,0.864722900390625,0.1888216131567955,-0.09003405279889702,0.09553635827591642
1638746573811745300,0.874745361328125,0.09893032982945442,-0.08400912082041613,0.08249881672216579
1638746573821766100,0.88476611328125,0.07639818002581596,-0.060185205040033905,0.0447543568752706
1638746573831788000,0.8947880859375,0.09605798926353454,-0.0004917301813431549,0.03338286710390821
1638746573841809200,0.90480908203125,0.09592647183835507,0.0026311339548788963,0.028676388179697095
1638746573851831000,0.9148310546875,0.10387012431919575,0.012341603170352754,-0.019125245703291147
1638746573861852200,0.92485205078125,0.1030225675791502,0.01209293591370806,-0.06887370280511677
1638746573871874000,0.9348740234375,0.06926642844974994,0.019984017957095056,-0.09793196644186973
1638746573881896000,0.94489599609375,0.05332943912744522,0.044484024634445084,-0.14927222277978433
1638746573891917000,0.9549169921875,0.06015431671142578,0.0579087845406495,-0.16753951821317895
1638746573901939200,0.964939208984375,0.05905483103692531,0.04600894177993759,-0.1501100801097229
1638746573911960000,0.9749599609375,0.07187573416531086,0.013740063799917697,-0.14765928942412138
1638746573921982000,0.98498193359375,0.10131634818315505,0.0039206075098365545,-0.13027498737033455
1638746573932003000,0.995003173828125,0.09064239395558833,0.03228657803349197,-0.11867336037121712
1638746573942025000,1.00502490234375,0.08324410039782523,0.06499085175609216,-0.14245565636642277
1638746573952046000,1.015046142578125,0.08437690382003783,0.08531449519740417,-0.1642282199744135
1638746573962068000,1.02506787109375,0.07684241666197776,0.09378792543970048,-0.14688216757178305
1638746573972090000,1.035090087890625,0.08608136965036392,0.0959549033483956,-0.0948223099887371
1638746573982111000,1.045111083984375,0.08022446031570434,0.08169685268951579,-0.027741481949761507
1638746573992133000,1.055133056640625,0.08243570662438869,0.04650898199025541,0.04586202585622668
1638746574002154000,1.065154052734375,0.0927139395326376,0.0023497597302310166,0.07498104323688894
1638746574012176100,1.075176025390625,0.11271978572905063,0.003288109159423038,0.08698372531756758
1638746574022197000,1.085197021484375,0.12000409751832485,-0.016769786884635686,0.11190225880108773
1638746574032219100,1.09521923828125,0.11709259398579597,-0.025775835299445316,0.10990505710188299
1638746574042241000,1.105240966796875,0.11612579478025435,-0.03412462538192049,0.07753025279566646
1638746574052262100,1.11526220703125,0.10679098020195961,-0.007486254969006404,0.03848802648950368
1638746574062284000,1.125283935546875,0.08537409816384316,0.007662844511773436,0.0014466916769742964
1638746574072305000,1.135304931640625,0.07535773106217383,0.00205345279793255,-0.0022821561204269527
1638746574082327000,1.1453271484375,0.09931377618908882,-0.01294273940976709,0.002096570420451462
1638746574092348200,1.15534814453125,0.11682955913543701,-0.019872730469191444,-0.016991320680826903
1638746574102370000,1.1653701171875,0.1458610078305006,0.019938763176416976,-0.08871833055783063
1638746574112391000,1.175390869140625,0.13734569294154644,0.04859224540456198,-0.10828878101166337
1638746574122413000,1.1854130859375,0.08364917406737804,0.032299309650901706,-0.07606587933152914
1638746574132435200,1.195435302734375,0.049101007777452466,0.014046015343395992,-0.0343796047899872
1638746574142456000,1.2054560546875,0.04176408901810646,0.004314829850167734,-0.028664697741903365
1638746574152478000,1.21547802734375,0.07991349467039108,0.014215490158786996,-0.03603668781463057
1638746574162499000,1.2254990234375,0.07631283982992172,0.02828653947873972,-0.030197460267134008
1638746574172521200,1.235521240234375,0.07151157702803611,0.030763642782531676,-0.052084955491684376
1638746574182542000,1.2455419921875,0.06505553275644779,0.034131383916269985,-0.06684135672729462
1638746574192564000,1.25556396484375,0.061601592910289764,0.025533870636578648,-0.06676547847948967
1638746574202585000,1.265585205078125,0.06730652655363083,0.009630363458767532,-0.0456001965822652
1638746574212607200,1.275607177734375,0.07273030516803264,0.0008989398674108087,-0.005671908156573772
1638746574222629000,1.285629150390625,0.08098200068473815,-0.00006866419737343676,0.006432005808874965
1638746574232650000,1.29564990234375,0.08443126435577869,-0.002889923030027421,-0.0009483502333983778
1638746574242671900,1.305671875,0.08923018907010555,-0.010620717069832607,0.01581073259413242
1638746574252693200,1.315693359375,0.08997662352323532,-0.00562784068598412,-0.007312149644270539
1638746574262715100,1.325715087890625,0.09834522341787814,-0.012094378952123223,-0.0382168083326891
1638746574272736000,1.335736083984375,0.09504150569736956,-0.017060732655227184,-0.04906370797436684
1638746574282758000,1.3457578125,0.10325988346636295,-0.04385695137782022,-0.08520444068536162
1638746574292779000,1.355779052734375,0.09907178412675857,-0.06899256167812272,-0.12429678974356502
1638746574302801200,1.36580126953125,0.08172142087519169,-0.07437306740637868,-0.19618213198743759
1638746574312823000,1.375822998046875,0.06902677447497844,-0.050974729227460915,-0.24600126143898812
1638746574322844000,1.385843994140625,0.0400631303191185,0.0022522907051257786,-0.2569686091225594
1638746574332866000,1.395865966796875,0.006199439162015915,0.014885699304239823,-0.23052834596447644
1638746574342887200,1.40588720703125,0.022039397850632667,0.022632276576710863,-0.15489946981072425
1638746574352909000,1.415908935546875,0.06840659675002098,0.028897054326208305,-0.07473192731402814
1638746574362930200,1.42593017578125,0.12283902868330478,-0.005618432965999818,-0.00833897194135934
1638746574372952000,1.4359521484375,0.16737959667742253,-0.004721009773062542,0.04982440841486677
1638746574382973000,1.445972900390625,0.1870569415718317,0.040705328079639,0.14163622974231838
1638746574392995000,1.4559951171875,0.1624047308743,0.0408088158535771,0.23969883682653306
1638746574403017000,1.466016845703125,0.14203648110628128,0.016472511837957424,0.2535701623233035
1638746574413038000,1.4760380859375,0.1806166793912649,0.0010398644417524336,0.18379288000827654
1638746574423060200,1.486060302734375,0.2036824976801872,0.0377038812413346,0.2471440017333254
1638746574433081000,1.4960810546875,0.14235738362371922,-0.11435210877177304,0.3896334507714957
1638746574443103000,1.50610302734375,0.33376492162048815,-0.6718923492994159,0.5181346334023401
1638746574453124000,1.5161240234375,0.8729127150982617,-0.8523993577711284,0.5441892947763204
1638746574463146000,1.52614599609375,0.9124562054574489,-0.5267245113648474,0.7108680497080088
1638746574473168100,1.536168212890625,0.3449643610268831,-0.2751818545474671,0.8428906479306518
1638746574483189000,1.54618896484375,-0.2391846036940813,-0.3003887217193842,0.3306862448275089
1638746574493211100,1.556211181640625,-0.6082172380506992,-0.022768579774862154,-0.3781517603576183
1638746574503232000,1.56623193359375,-0.50077276237607,0.8902896740958094,-0.2010056796863675
1638746574513254100,1.576254150390625,-0.09428104271888732,1.5135658034600317,0.127285961622186
1638746574523275300,1.586275146484375,0.19621873767077921,1.1707987332817167,-0.2482401629395783
1638746574533297200,1.596297119140625,0.11581249104738235,0.22349315009806303,-0.7332148330073803
1638746574543318000,1.606318115234375,0.016487608942389487,-0.20166407052986324,-1.0294118021253496
1638746574553340000,1.61633984375,-0.04263093498051166,-0.2144682417191565,-1.1430240066494792
1638746574563362000,1.626362060546875,-0.15581833822131155,-0.14964340331288986,-0.9151216252744198
1638746574573383200,1.636383056640625,-0.2739759310901165,-0.05096213460736908,-0.5133038887776434
1638746574583405000,1.646405029296875,-0.2916910360008478,0.015113260982418431,-0.17227832850441335
1638746574593426000,1.656426025390625,-0.1359001703083515,0.08113747437424026,0.042308717288821934
1638746574603448000,1.666447998046875,0.12107669518589972,0.1496868040631991,0.20882042682422325
1638746574613469200,1.67646923828125,0.29052023865580556,0.1541417467785999,0.31815066144652665
1638746574623491000,1.686490966796875,0.29301848521232604,0.059282228318322444,0.3653709700439125
1638746574633512000,1.696511962890625,0.23141280064880845,-0.05630950525100343,0.44606399771943683
1638746574643533800,1.706533935546875,0.13511340384483336,-0.15201981358802877,0.4845643357012421
1638746574653556200,1.71655615234375,0.09094283820688724,-0.21781132333567366,0.4442463538382202
1638746574663577000,1.7265771484375,0.14018997645676134,-0.2668520522932522,0.3261487475283444
1638746574673599000,1.736598876953125,0.2219523138642311,-0.2803260490355082,0.19746738602500408
1638746574683620000,1.7466201171875,0.2899836475610733,-0.243228983714059,0.09507009247103705
1638746574693642200,1.756642333984375,0.293076352879405,-0.16125764319840818,0.024203571880888192
1638746574703663000,1.7666630859375,0.24617431645095347,-0.09149609730863012,-0.045933465390931814
1638746574713685000,1.77668505859375,0.1572375573694706,-0.04623315159040503,-0.07374496210329234
1638746574723707000,1.786706787109375,0.08746434844136237,-0.002731160263251513,-0.05071721080243587
1638746574733728500,1.796728515625,0.07079086153805256,0.030446293062204494,-0.03906009075641632
1638746574743750400,1.80675048828125,0.08670388546288013,0.049325555514637374,-0.04091477871239185
1638746574753771500,1.816771484375,0.08118366073668003,0.04564837397239171,-0.04998370889611542
1638746574763793400,1.82679345703125,0.08236848660707473,0.019695583803998305,-0.08051069337856025
1638746574773814500,1.836814453125,0.09238076205551624,-0.01106092598484829,-0.08268414669381455
1638746574783836400,1.84683642578125,0.09369652082920074,-0.04859303998900577,-0.06912711131060495
1638746574793857300,1.856857177734375,0.08513795132040977,-0.06218312825844623,-0.05260844964282587
1638746574803879400,1.86687939453125,0.08542319800257682,-0.042320188530907035,-0.02348497528275475
1638746574813901300,1.8769013671875,0.07344459091722964,0.001965539335750509,0.017858568502031266
1638746574823922400,1.88692236328125,0.08031973738372325,0.041293101372336966,0.038427163147740064
1638746574833944300,1.8969443359375,0.08211188149750233,0.05333285492723808,0.07389118390725925
1638746574843965400,1.90696533203125,0.08164952468276024,0.07184441657843998,0.10953940212726593
1638746574853987300,1.9169873046875,0.07489888137876988,0.06248793815760873,0.10477485460657626
1638746574864008400,1.927008544921875,0.09792086052596569,0.03459606968541629,0.09089023123681544
1638746574874030300,1.9370302734375,0.11002338625192641,0.010098574625561013,0.06933730172887444
1638746574884051200,1.94705126953125,0.09594400749504566,-0.008588316193083301,0.04447972291866317
1638746574894073600,1.957073486328125,0.07902969757318497,-0.041099734224705024,-0.006503847202379256
1638746574904095500,1.967095458984375,0.07050386129021644,-0.06799218899654225,-0.04478984831376001
1638746574914116400,1.977116455078125,0.0991004256993532,-0.08188633824647404,-0.07021090622562914
1638746574924138500,1.987138427734375,0.12352058120667933,-0.07380335036017932,-0.09477383120451122
1638746574934159600,1.99715966796875,0.11621581115126609,-0.08253028043950908,-0.12510763120241464
1638746574944181500,2.007181396484375,0.10606851114630698,-0.07134374618045985,-0.14591134977824985
1638746574954202400,2.017202392578125,0.09771335525512695,-0.05470324823129922,-0.1411644840447232
1638746574964224300,2.027224365234375,0.08845920469760894,-0.039175944821583104,-0.1288900723505765
1638746574974245600,2.03724560546875,0.09759235922396182,-0.03561564025781117,-0.10661027160650119
1638746574984267500,2.047267578125,0.11554244193434715,-0.021807068665791303,-0.07641955160740763
1638746574994289400,2.057289306640625,0.12121522687375545,-0.01722970514711924,-0.06509935363186523
1638746575004310300,2.067310302734375,0.10833177990317344,0.01223655476863496,-0.05643717761812731
1638746575014332400,2.07733251953125,0.0864700767070055,0.040054389890236776,-0.03638705388857052
1638746575024353500,2.087353515625,0.07792495120167732,0.055832909848354755,-0.0012091931266710162
1638746575034375400,2.09737548828125,0.06832651725113391,0.07075213696286081,0.04480206847451627
1638746575044396300,2.107396240234375,0.07997837660014628,0.06362414824645966,0.07263091818047687
1638746575054418400,2.11741845703125,0.10076631308495998,0.03548936526332982,0.0884828961004503
1638746575064439600,2.127439453125,0.10016074840724468,0.022901366708520797,0.10314608436096459
1638746575074461400,2.13746142578125,0.11900456508696079,0.009701876058708876,0.11602969572832807
1638746575084483300,2.1474833984375,0.14142974738478659,-0.0037528131948783993,0.12937708868253975
1638746575094504400,2.15750439453125,0.17791852634847163,-0.020474276558915153,0.11636064471574499
1638746575104526600,2.167526611328125,0.15979776324629782,-0.010446374283079058,0.1064378559153527
1638746575114547500,2.17754736328125,0.08257190022468566,-0.014640437572589144,0.10061932409601286
1638746575124569300,2.1875693359375,0.05621347013115883,-0.12394073371435514,0.06338290510280058
1638746575134590500,2.197590576171875,0.10525018050074576,-0.2287117432628758,0.004439005360752344
1638746575144612600,2.207612548828125,0.2296902146399021,-0.2184749931424856,-0.12038560764919966
1638746575154633500,2.217633544921875,0.2998492080152035,-0.16532091058194637,-0.23599895939528942
1638746575164655400,2.2276552734375,0.24139058930575846,-0.10316101706861518,-0.2583109453759156
1638746575174677200,2.23767724609375,0.13657763117849825,-0.04002028669123538,-0.19042218022122978
1638746575184698400,2.247698486328125,0.05405541531443596,0.03614214834994636,-0.07414988964237272
1638746575194720500,2.257720458984375,0.02968845129907131,0.07997191945989615,0.06310408816142007
1638746575204741400,2.267741455078125,0.06555939062535762,0.12992761697107924,0.1268769058972597
1638746575214763500,2.277763427734375,0.10408347480893135,0.15608086161501705,0.17265713522154838
1638746575224784400,2.287784423828125,0.11623743846118449,0.15256649681851267,0.2010113239758648
1638746575234806500,2.297806640625,0.07764788782596588,0.17902056930623947,0.22027700106315312
1638746575244828400,2.307828369140625,0.004650456154346466,0.1679984957607463,0.2227968018643558
1638746575254849500,2.317849609375,-0.10648293716609478,0.065730555074336,0.19046371780801563
1638746575264871400,2.327871337890625,-0.15639701489210128,-0.03660377451232634,0.10002594304643571
1638746575274892300,2.337892333984375,-0.1004869116216898,-0.013356790970219298,0.02472560472730547
1638746575284914400,2.34791455078125,-0.0007043488770723343,0.019530776030570268,-0.04217948315227404
1638746575294935600,2.357935546875,0.07831833443343639,0.038642139338981356,-0.09301968101356178
1638746575304957400,2.36795751953125,0.12011106502413749,0.0768835706562735,-0.02309349174713716
1638746575314978300,2.377978271484375,0.13240531392991542,0.1334097417321056,0.05046740075983107
1638746575325000400,2.38800048828125,0.1288075816988945,0.15118055888544768,0.04773868818199262
1638746575335022300,2.398022216796875,0.1397042387664318,0.13806968723400495,0.021460136657953263
1638746575345043500,2.40804345703125,0.11885901913642882,0.09710723345498554,0.0024026406949386
1638746575355065300,2.4180654296875,0.1279191084265709,0.05695420549586415,-0.04603455114522949
1638746575365086200,2.428086181640625,0.11811842990219593,-0.002287188488570973,-0.1289851667555049
1638746575375108600,2.438108642578125,0.11116963367760181,-0.12333953468450344,-0.048135450680926437
1638746575385129500,2.44812939453125,0.19565701213479042,-0.15052819592393935,0.057330016538314515
1638746575395151400,2.4581513671875,0.27625205932855607,-0.11627265590503812,0.1036396400315687
1638746575405172200,2.468172119140625,0.25656653112769123,-0.10446334097199142,0.10687990059442817
1638746575415194600,2.478194580078125,0.16670038224160671,-0.15078967813802882,0.11292124485159293
1638746575425216500,2.488216552734375,0.0916588775217533,-0.20426720223296432,0.17690301089668645
1638746575435237400,2.4982373046875,0.07392039173543453,-0.25916400027498604,0.21914085490638388
1638746575445259300,2.50825927734375,0.11731295873820781,-0.2491320702780038,0.2531950271342881
1638746575455280600,2.51828076171875,0.21378069784641265,-0.17840342378858476,0.15066143038216978
1638746575465302500,2.528302490234375,0.2144669265449047,-0.04244292899458669,0.015610972238332032
1638746575475323400,2.538323486328125,0.14423837506473064,0.06950847531100734,-0.09969028135128319
1638746575485345300,2.54834521484375,0.02856266213953495,0.14773655591141432,-0.19928981567919254
1638746575495366400,2.558366455078125,-0.03407178094983101,0.1893051223574206,-0.2789603319065645
1638746575505388500,2.568388427734375,-0.05216507152318954,0.22087774343527852,-0.26565876912176606
1638746575515410400,2.578410400390625,-0.04550210650265216,0.19472181364390997,-0.2137014220651239
1638746575525431300,2.588431396484375,-0.0190881468296051,0.18912706237677485,-0.17057101312987505
1638746575535453400,2.598453369140625,0.057842532637715334,0.23720015187859533,-0.1249555459132418
1638746575545474600,2.608474609375,0.11714461643397807,0.29090593177145346,-0.17746132063288242
1638746575555496400,2.618496337890625,0.07600245870649815,0.23256354158651082,-0.19307704211156815
1638746575565517300,2.628517333984375,0.03025836014151573,0.13427556478120387,-0.11856865788772701
1638746575575539500,2.63853955078125,-0.0010819500178098679,0.02140592225268483,-0.12128211809750646
1638746575585561600,2.6485615234375,0.03601180910170078,-0.015360449809674173,-0.1112843095658347
1638746575595582500,2.65858251953125,0.08598843066990375,-0.05684900982202962,-0.09026661944575608
1638746575605604400,2.668604248046875,0.10978782393038272,-0.13665151839861645,-0.05863287929780781
1638746575615625500,2.67862548828125,0.13194997137784958,-0.19070874207764862,0.0028322642838582396
1638746575625647600,2.688647705078125,0.14885609799325467,-0.2246560929302126,-0.02926774166896939
1638746575635668500,2.69866845703125,0.16186755525767801,-0.22130577785531058,-0.03859941444210708
1638746575645690400,2.7086904296875,0.1549807183533907,-0.17907012580269946,-0.03855484464801848
1638746575655711500,2.71871142578125,0.13235270695984364,-0.10640321386023424,-0.06073120328392833
1638746575665733400,2.7287333984375,0.0974672715395689,-0.03691325145345181,-0.07212832068689166
1638746575675755500,2.738755615234375,0.07277122170031071,0.0030826679815072564,-0.041745128589309746
1638746575685776400,2.7487763671875,0.07608020011782646,0.0713212694871705,-0.0056258039925247425
1638746575695798300,2.75879833984375,0.06413549530208111,0.14891577402492984,0.0879181566234678
1638746575705819400,2.7688193359375,0.05274900889098644,0.17646741422470658,0.10372512635793536
1638746575715841500,2.778841552734375,0.04286941991150379,0.11801579151162878,0.09850249633882194
1638746575725862400,2.7888623046875,0.044991818892955775,0.052847564761480316,0.06535374851804227
1638746575735884800,2.798884765625,0.034411388167738914,0.028712318009603766,0.04333356682453304
1638746575745906000,2.808906005859375,0.04060089045763016,-0.008090422274079174,0.005674173178896308
1638746575755927800,2.818927734375,0.031252047353982924,-0.0952361880192533,0.03717259650938213
1638746575765949700,2.82894970703125,0.061270168998837464,-0.2174883749916218,0.08576412039473652
1638746575775970800,2.838970703125,0.14905541995763777,-0.32416451490856707,0.12252985313627868
1638746575785993000,2.848992919921875,0.22140461685359478,-0.368281633326225,0.183854382670857
1638746575796013800,2.859013916015625,0.2520990303248167,-0.31259273505844176,0.2487580858664587
1638746575806035700,2.86903564453125,0.2512958972483873,-0.21872319574989377,0.24768106775209306
1638746575816056800,2.879056884765625,0.24909108068048952,-0.17432393592260778,0.17040168444495646
1638746575826079000,2.889078857421875,0.22082067948579787,-0.13506893451544455,0.04679872218444943
1638746575836099800,2.899099853515625,0.15876432854533196,-0.04665555542067159,-0.06043952686097472
1638746575846121700,2.909121826171875,0.061608607172966,0.061539460060046985,-0.11742719623502343
1638746575856143600,2.9191435546875,-0.028172786039113995,0.10442614163360558,-0.09628756023570895
1638746575866165000,2.9291650390625,-0.0694511373668909,0.1387325624563731,-0.06517652878761292
1638746575876187000,2.939186767578125,-0.04727203878462315,0.16837565851006656,-0.10747319031246005
1638746575886207700,2.949207763671875,0.01204115092754364,0.20697854355089365,-0.18754684398062527
1638746575896229600,2.959229736328125,0.08379296645224094,0.31678309942036864,-0.2709178221611306
1638746575906250800,2.969250732421875,0.12414309701919556,0.41861430179048326,-0.2964009672574699
1638746575916273000,2.97927294921875,0.09340601345002651,0.4205634996294975,-0.30036782506182785
1638746575926293800,2.989293701171875,0.012843114960193634,0.23943342735599726,-0.32364998951517043
1638746575936315600,2.999315673828125,-0.05764496423900127,-0.021654608917282894,-0.2685618336195126
1638746575946337800,3.009337890625,-0.06164484753012657,-0.16820039327470585,-0.15122896460443735
1638746575956359000,3.01935888671875,0.005282324317097664,-0.16786190030165016,-0.04532351679904386
1638746575966380800,3.029380859375,0.07383738962709903,-0.10627809877637773,0.05173504607547074
1638746575976402000,3.03940185546875,0.11544190416932106,-0.032971879716799594,0.1365559490696527
1638746575986423800,3.049423828125,0.12769757463037967,0.03860096251179929,0.19764531814148648
1638746575996444700,3.059444580078125,0.15189619634151458,0.09045171195538713,0.20664268092634155
1638746576006466800,3.069466796875,0.1528583193719387,0.1326108281730674,0.18988010923378168
1638746576016488700,3.07948876953125,0.1410720199882984,0.10779186434019357,0.1485569506498985
1638746576026509800,3.089509765625,0.1485883869677782,0.044852392155956475,0.07547474503796547
1638746576036532000,3.099531982421875,0.15703297470808028,0.0010957045485265552,0.026528014506772158
1638746576046552800,3.109552734375,0.1300403383642435,-0.017602620979584753,0.0010812193654477595
1638746576056574700,3.11957470703125,0.094242464274168,-0.016133735737111417,-0.017720018547866492
1638746576066595800,3.129595947265625,0.09167933578789234,-0.023667268480523487,-0.012361980379745363
1638746576076617700,3.13961767578125,0.09196516699194908,-0.026488787608081474,0.05002265266701579
1638746576086638800,3.149638916015625,0.11288929707705973,-0.07908888041451573,0.11448054832387715
1638746576096660700,3.15966064453125,0.13677753766477108,-0.11125868193423374,0.18211568577736614
1638746576106683000,3.169682861328125,0.15493804825544355,-0.09120340710552409,0.21922727281451224
1638746576116703700,3.179703857421875,0.16348726541399955,-0.07979589617270975,0.22351172693436963
1638746576126726000,3.189725830078125,0.16706044772565365,-0.08316327198026702,0.16180645445389671
1638746576136747000,3.1997470703125,0.17286299652457235,-0.10546777790733612,0.077351608293131
1638746576146769000,3.209768798828125,0.1822597704231739,-0.12641654011020437,-0.05188999917516485
1638746576156789800,3.219789794921875,0.16160159779787062,-0.12097407506164162,-0.18081885089986025
1638746576166811600,3.229811767578125,0.11208733304440975,-0.10941669819620438,-0.27451672343593087
1638746576176833000,3.2398330078125,0.056176060730218885,-0.07738785778344609,-0.3313700258405879
1638746576186855000,3.24985498046875,0.016767010405659675,-0.03689574776280206,-0.3075855013556778
1638746576196876800,3.259876708984375,0.03139642426073551,0.0001622961559332907,-0.20028167626075447
1638746576206897700,3.269897705078125,0.0539402645021677,0.06931888015619479,-0.07504724034089595
1638746576216919800,3.279919921875,0.06627718350589275,0.12672318577342667,0.02276040560156107
1638746576226941000,3.28994091796875,0.09443184936642646,0.14237097375765442,0.0924942506336607
1638746576236962800,3.299962890625,0.1265986734777689,0.10977938489560037,0.13535609002690763
1638746576246983700,3.309983642578125,0.1325549515336752,0.06054506959468126,0.17620368525460361
1638746576257005600,3.320005615234375,0.10811024610698222,0.025855339409597215,0.1717218819317408
1638746576267027000,3.33002685546875,0.0980243209004402,-0.030769204873638226,0.1342446947189048
1638746576277048800,3.340048828125,0.08301964399218559,-0.07831770424577407,0.0872923528753221
1638746576287070700,3.35007080078125,0.09587912556529045,-0.12510354868234133,0.030211233064159747
1638746576297091800,3.360091796875,0.13151099543869493,-0.12920470039085485,0.016602741488348692
1638746576307114000,3.370114013671875,0.14067103797197342,-0.10899600683241151,0.019451171455718577
1638746576317134800,3.380134765625,0.12933657400906085,-0.08377336670262739,0.05773982118191197
1638746576327156700,3.39015673828125,0.11411211687028408,-0.03523230349603109,0.08622861436763778
1638746576337177900,3.400177734375,0.09064590108692645,0.01776154700149782,0.09057721976488828
1638746576347200000,3.410199951171875,0.07748655978441238,0.043279325019801036,0.09348552669333293
1638746576357220900,3.420220947265625,0.07403437350392342,0.04363703414998017,0.0771302571600303
1638746576367242800,3.43024267578125,0.09166004656553269,0.029848482432682066,0.03092763770520687
1638746576377264600,3.4402646484375,0.10479600699245929,0.0030823391879443076,-0.03173559308722615
1638746576387285800,3.45028564453125,0.10552373674511908,-0.016293036218360066,-0.08199645669059827
1638746576397308000,3.460307861328125,0.10013970561921597,-0.03431176371816545,-0.10388146769711747
1638746576407328800,3.470328857421875,0.08205693643987179,-0.058551073632715264,-0.08172976857842877
1638746576417350700,3.4803505859375,0.08328384788632393,-0.08016815441804938,-0.048971901505067944
1638746576427371800,3.490371826171875,0.10111527265310287,-0.08145745444307104,0.011421521191857754
1638746576437394000,3.500393798828125,0.13584288716316223,-0.08253577859853393,0.05081188508225604
1638746576447415800,3.510415771484375,0.21917408132255076,-0.061868189690914004,0.04081341896345839
1638746576457437000,3.52043701171875,0.27958032696843144,-0.01761013756575994,0.022461367856059223
1638746576467458800,3.530458740234375,0.23013737388551234,0.0772595643618144,-0.02577705000899732
1638746576477479700,3.540479736328125,0.08672025207579136,0.16472705460833384,-0.025420856982469556
1638746576487501800,3.550501708984375,-0.04935585932135582,0.17832370961587876,0.0037153307287022467
1638746576497523000,3.56052294921875,-0.08979659078121185,0.1676441658977419,0.06782426681742072
1638746576507544800,3.570544921875,-0.023235914158821105,0.19306257519479839,0.09892497780090197
1638746576517565700,3.580565673828125,0.0389911171734333,0.19587248151637612,0.06537890122560784
1638746576527587800,3.590587890625,0.042865328258275985,0.11772374976249411,-0.052127260263450444
1638746576537609700,3.600609619140625,0.03538753972351551,0.030616379798948764,-0.15889166298573837
1638746576547630800,3.610630859375,0.037054596152901645,-0.04865358367036096,-0.18818026477964594
1638746576557652700,3.62065283203125,0.058791796186566346,-0.09670599571033381,-0.18659020084291694
1638746576567673900,3.630673828125,0.10389292067289352,-0.11708877632720395,-0.1738732695456594
1638746576577695700,3.64069580078125,0.11131634867191315,-0.10694365001302211,-0.14390435733739285
1638746576587716900,3.650716796875,0.10065116227269172,-0.08757506967368535,-0.06807584869200363
1638746576597738800,3.66073876953125,0.08892565316557884,-0.06344528454821556,0.030381548129767177
1638746576607759600,3.670759521484375,0.08987374767065048,-0.036452840000623835,0.10737000393262132
1638746576617781800,3.68078173828125,0.1072358013600111,-0.0073660626554396,0.1610730986780487
1638746576627804000,3.690803955078125,0.1284668054372072,0.009304373774258419,0.1794834558439441
1638746576637824800,3.70082470703125,0.14489187053740024,0.008213838591193779,0.18322090707290917
1638746576647846700,3.7108466796875,0.15037994655966758,0.0031639713231008497,0.14533038981882854
1638746576657868000,3.720867919921875,0.1504834069341421,-0.010534061699686572,0.08710552506633103
1638746576667890000,3.730889892578125,0.1289022742450237,-0.03831883480190299,0.030178518104646352
1638746576677910800,3.740910888671875,0.1332388421446085,-0.04447060803044587,-0.018483203206397594
1638746576687932700,3.7509326171875,0.12996435051858424,-0.048745061346096914,-0.04678557044193148
1638746576697953800,3.760953857421875,0.12251111190319061,-0.04337453815573826,-0.041654619027953595
1638746576707976000,3.770975830078125,0.12044774963259697,-0.028289434688724576,-0.052572866872791196
1638746576717997800,3.780997802734375,0.09400047221183776,-0.008668596621369942,-0.04596477384464815
1638746576728018700,3.791018798828125,0.09043839581608772,0.0014397870121523736,-0.04816752631962299
1638746576738040300,3.801040283203125,0.0834159498333931,0.011484156365599482,-0.04124894257020205
1638746576748061400,3.8110615234375,0.06785071643292903,0.026108117727423084,-0.0303061082733795
1638746576758083300,3.821083251953125,0.08025719354152679,0.02320484316712245,-0.02789270872240886
1638746576768104400,3.8311044921875,0.09026187020540237,0.022700957898749038,-0.017967380905058235
1638746576778126600,3.841126708984375,0.08650748610794544,0.011176725251087918,-0.013263550595659762
1638746576788147500,3.8511474609375,0.08080898220539093,0.0026347598172258586,0.00685174732459709
1638746576798169300,3.86116943359375,0.08813654861450194,0.0010567151118535548,0.027090141901560127
1638746576808191500,3.87119140625,0.0899246010750532,0.0011442655311431735,0.039709165782295164
1638746576818212600,3.881212646484375,0.09186229113936424,-0.010033692695805802,0.0454044182818383
1638746576828234500,3.891234375,0.09290566271245479,-0.012205191515991464,0.02795468630902469
1638746576838255400,3.90125537109375,0.09964227749109268,-0.008995463088713586,0.022476839419826863
1638746576848277200,3.91127734375,0.09336217430830002,-0.0007181582067161798,0.0192258382672444
1638746576858298600,3.921298583984375,0.08767594536542891,0.00028751170448958874,0.008177735231351107
1638746576868320500,3.931320556640625,0.10339490802288055,0.001989082324830815,0.0073039846041239795
1638746576878342400,3.94134228515625,0.10699790095090865,0.005552373430132865,-0.003811301916465163
1638746576888363300,3.95136328125,0.11179916375279426,0.006841435993136837,-0.0034508893725462256
1638746576898385400,3.961385498046875,0.10118716884553432,0.003787080790661275,0.0027048750445246694
1638746576908406500,3.971406494140625,0.09925181686878204,-0.00046628407118842004,-0.010914594583027064
1638746576918428400,3.981428466796875,0.09132453100085258,0.005795972927659749,-0.021313257266860453
1638746576928449300,3.99144921875,0.08953472497463226,0.007392904996592551,-0.012624211512506008
1638746576938471400,4.001471435546875,0.08265957850813865,0.008377842647023499,-0.008377532119769602
1638746576948492500,4.011492431640625,0.09837854116559028,0.011609289715765043,0.00019413433261215686
1638746576958514400,4.021514404296875,0.10691431432068348,0.01093701647738926,-0.011524561441224069
1638746576968536300,4.031536376953125,0.09629764323830604,0.0025113069674931464,0.0011737016881816088
1638746576978557400,4.041557373046875,0.0964513724952936,-0.00706247659898363,0.012969463019911198
1638746576988579600,4.05157958984375,0.1081242746323347,-0.0025444329189602283,0.024560842619650063
1638746576998600400,4.061600341796875,0.1090180086016655,-0.004683399442723021,0.025063367047999052
1638746577008622300,4.071622314453125,0.10392565389871597,-0.012639144220156594,0.019588022643141446
1638746577018643500,4.0816435546875,0.10182488222718238,-0.0002322743859142065,0.019270718588586897
1638746577028665600,4.09166552734375,0.09912965179383754,0.0014486187725793569,0.013105565288662909
1638746577038687500,4.1016875,0.10092179590761662,-0.004410308989230543,0.006870159764122218
1638746577048708400,4.111708251953125,0.10346329708397388,-0.006748780140466988,0.0023777254493907093
1638746577058730200,4.121730224609375,0.10496318025290965,-0.008296995963156223,0.004585610757209361
1638746577068751400,4.13175146484375,0.10452011266052723,-0.01016912824427709,-0.004538501946162433
1638746577078773500,4.1417734375,0.11320260080993175,-0.02005712885907851,-0.007730996110849082
1638746577088794400,4.15179443359375,0.10153028319478034,-0.013622666231635957,-0.010368870333768427
1638746577098816500,4.16181640625,0.09180909964740276,-0.009507970054959878,-0.006431256890203804
1638746577108837400,4.17183740234375,0.08059446267187595,-0.015120476174494251,-0.0015771861888468264
1638746577118859500,4.181859619140625,0.08254501221776007,-0.0159894866945222,-0.003927055516932159
1638746577128881400,4.19188134765625,0.08943009555637836,0.002377561052609235,-0.00428883803403005
1638746577138902500,4.201902587890625,0.08853519254326819,0.008702864217152818,-0.00361685705659911
1638746577148924400,4.21192431640625,0.09616203415989875,0.001407519577210769,0.005560995128005742
1638746577158945300,4.2219453125,0.10663140572607517,-0.0073408916815649716,0.011576054166443646
1638746577168967400,4.231967529296875,0.1069219131052494,-0.01645074753072113,0.02099911328377202
1638746577178988500,4.241988525390625,0.09883563728332519,-0.01854201158839278,0.03716960083469748
1638746577189010400,4.252010498046875,0.10227028790712356,-0.0098051629032474,0.0292938076919876
1638746577199031300,4.26203125,0.10255495006740092,-0.008900460015330463,0.027114582223072645
1638746577209053400,4.272053466796875,0.11585457662343979,-0.0033996615088079125,0.02339452052032575
1638746577219075300,4.282075439453125,0.10790683248937129,0.0025131792641710487,0.0051743156316690145
1638746577229096400,4.292096435546875,0.10818506490886211,0.011968085691332817,-0.006758753545209765
1638746577239118300,4.302118408203125,0.11504735189378261,0.013406877189641817,-0.007873929979186504
1638746577249139500,4.312139404296875,0.11457914986014366,0.011243808271083981,-0.011166267789155243
1638746577259161600,4.32216162109375,0.10109832151830196,0.0007038374204188585,-0.015355791900865733
1638746577269182500,4.332182373046875,0.08313245671689509,-0.01589841087758541,-0.032065299965627486
1638746577279204400,4.342204345703125,0.07294833183288574,-0.02294295909423381,-0.030073468561284244
1638746577289225200,4.35222509765625,0.08072247296571732,-0.035799189264327284,-0.014559746152348816
1638746577299247600,4.36224755859375,0.07891337771713733,-0.04419493289422244,0.006630798050295561
1638746577309269500,4.37226953125,0.10193944851756095,-0.03091622126204893,0.012637545918114482
1638746577319290400,4.382290283203125,0.12586568302810192,-0.02359287437032908,0.0226981722866185
1638746577329312300,4.392312255859375,0.11761048038005828,-0.009571536810463294,0.028926563548482952
1638746577339333600,4.402333740234375,0.11294131952524185,-0.0001473908477462828,0.02887799343271181
1638746577349355500,4.41235546875,0.11888415357768535,0.001972213388420641,0.020970124651305377
1638746577359376400,4.42237646484375,0.10538111340403557,0.01292703951713629,-0.0022111732434481383
1638746577369398300,4.432398193359375,0.08904372658729552,0.024988584778737274,-0.026988855217862873
1638746577379419400,4.44241943359375,0.07825111441612244,0.039399140851898114,-0.04230844329418614
1638746577389441500,4.452441650390625,0.0531038136780262,0.030581271952949463,-0.04188804419133812
1638746577399463400,4.46246337890625,0.07703823149502277,0.018889610316511242,-0.011054496244061738
1638746577409484300,4.472484375,0.08571312085986137,0.01437406912082806,0.028860750036966053
1638746577419506400,4.48250634765625,0.09677695118784904,0.002195153690408915,0.0826250734503381
1638746577429527600,4.492527587890625,0.12188976513445376,-0.01257855487302877,0.10866645521763711
1638746577439549400,4.502549560546875,0.15536182662546633,-0.016732318118191324,0.09817585820034146
1638746577449570300,4.5125703125,0.1533586701095104,-0.012124938487168401,0.0975536346487701
1638746577459592400,4.522592529296875,0.13233517130315303,-0.038014522659662174,0.09040856693340465
1638746577469614600,4.532614501953125,0.1307511169821024,-0.05005636314037255,0.09113909143134952
1638746577479635500,4.542635498046875,0.14456453827917576,-0.05865994996782392,0.08968816197067499
1638746577489657300,4.5526572265625,0.17437632369697093,-0.0638059939196566,0.06335428179651498
1638746577499678500,4.562678466796875,0.17814824345111846,-0.06183639718000777,0.068439530905243
1638746577509700600,4.57270068359375,0.18025544486343859,-0.04739116708568763,0.07837901511210947
1638746577519721500,4.582721435546875,0.16901625796854494,-0.04058576138715725,0.048698637521639464
1638746577529743400,4.592743408203125,0.1661468400120735,-0.034528950132802126,0.02387687894348055
1638746577539764500,4.602764404296875,0.13694061927199364,-0.009321457339799962,-0.002719871684256941
1638746577549786400,4.612786376953125,0.09052607409954071,0.01264412635595072,0.0025464330798015
1638746577559808500,4.62280859375,0.04814414544403553,0.019094841431872917,0.051841922249738125
1638746577569829400,4.632829345703125,0.06513444321155548,0.015413298808340914,0.06005951456744223
1638746577579851300,4.642851318359375,0.10126491025686263,0.012063992947014048,0.0889510433351621
1638746577589872400,4.652872314453125,0.13648235411047935,-0.006510094280075282,0.06866122909821569
1638746577599894500,4.66289453125,0.15671265671253204,-0.018311198507202787,0.009284180369600653
1638746577609915400,4.672915283203125,0.1351853000372648,-0.007097812773846089,-0.07173665448818356
1638746577619937500,4.6829375,0.09796236158013344,-0.009134830460208467,-0.15538297901134937
1638746577629958400,4.69295849609375,0.052253334328532214,-0.0057776289867935695,-0.21791505770478398
1638746577639980300,4.702980224609375,0.029054245048761366,-0.002077614558232017,-0.21912874434348195
1638746577650002400,4.71300244140625,0.02009293995797634,0.02251846833815798,-0.18077179688774048
1638746577660023600,4.7230234375,0.04569324516057968,0.02216460426603444,-0.16500428238082676
1638746577670045400,4.73304541015625,0.09193477185368537,0.0333642172023654,-0.20783311455361544
1638746577680066300,4.74306640625,0.11289689586162567,0.07225993857677095,-0.22743980536460875
1638746577690088400,4.75308837890625,0.1084340712338686,0.09081274555381387,-0.17415975833684205
1638746577700109600,4.763109619140625,0.07149813302457332,0.11606074845371767,-0.11045187732968478
1638746577710131500,4.77313134765625,0.014659224471449852,0.1465241113817319,-0.05132715939432382
1638746577720152300,4.78315234375,-0.04393851044774055,0.15764608337143435,-0.02955032147001475
1638746577730174500,4.793174560546875,-0.06986731695234775,0.16003946304768324,-0.028207053634896874
1638746577740196600,4.803196533203125,-0.046833647367358205,0.1688775070849806,-0.04202920622769743
1638746577750217700,4.8132177734375,-0.012878186273574828,0.1446168529883027,-0.022196341978013515
1638746577760239600,4.823239501953125,0.02706687062382698,0.06845639527507591,0.013372691792249678
1638746577770260500,4.833260498046875,0.06749123547077178,0.012785238159960135,0.05140745808891952
1638746577780282600,4.84328271484375,0.07157996608912945,0.0038790699230507016,0.06656842153742909
1638746577790303700,4.8533037109375,0.06926116775274277,0.00221858023176901,0.0652331543456763
1638746577800325600,4.86332568359375,0.09882686945497988,-0.019708562016580253,0.061120823656022547
1638746577810347800,4.87334765625,0.1479997734248638,-0.06124656892754137,0.016517711819708347
1638746577820368600,4.88336865234375,0.13327449797987936,-0.035276243102457375,0.02673431420121342
1638746577830390800,4.893390869140625,0.026075521498918532,-0.018547299684863537,0.006204772924259304
1638746577840411600,4.90341162109375,-0.007640870141983031,-0.06644744377257301,-0.005655833804607391
1638746577850433500,4.91343359375,0.0949789618551731,-0.10460543459011241,0.016342099524475632
1638746577860455000,4.923454833984375,0.21150866126120088,-0.06673438008832745,0.017624796278774738
1638746577870476800,4.933476806640625,0.1897673695743084,0.04044872753664385,0.0025220658235251903
1638746577880497700,4.94349755859375,0.05804945338666439,0.05070570302773267,-0.009162234490364789
1638746577890519600,4.95351953125,-0.01563128437399864,-0.0037900764653459188,-0.002200432653725147
1638746577900541700,4.963541748046875,0.05462766224443912,-0.02502933691423386,0.05382741524484008
1638746577910562800,4.973562744140625,0.17453063747584818,-0.032242026505712416,0.09523191370293498
1638746577920584700,4.983584716796875,0.2472533438593149,-0.03565102209844626,0.11877828205041586
1638746577930605600,4.99360546875,0.25499708985388275,-0.046486569229047744,0.1317456809774041
1638746577940627500,5.00362744140625,0.23921382978856562,-0.06546420945546123,0.11545556736849248
1638746577950648800,5.01364892578125,0.2219084747225046,-0.07970021724589169,0.09527841972578316
1638746577960670700,5.023670654296875,0.18315467343628405,-0.09076244013868272,0.08201591030973941
1638746577970691600,5.033691650390625,0.20407763447761534,-0.08276478331512771,0.03478223077412695
1638746577980713700,5.043713623046875,0.18043664664924144,-0.08314190039867535,-0.00821015792991966
1638746577990736000,5.05373583984375,0.12044950319826603,-0.0935352475865744,-0.0380925608985126
1638746578000756700,5.0637568359375,0.06556523584425449,-0.05875088878744281,-0.047113012298010286
1638746578010778600,5.073778564453125,0.037321722656488414,-0.020255199581291527,-0.051526517891325056
1638746578020799700,5.0837998046875,0.027953590330481528,-0.012772396944696084,-0.08838909860346465
1638746578030822000,5.09382177734375,0.026688100439310074,0.006524264369322918,-0.10041417517904191
1638746578040842800,5.1038427734375,0.043832127463817594,0.04554206405370496,-0.10767105097211897
1638746578050864600,5.11386474609375,0.056329789987206454,0.04420695212557912,-0.10956270993761717
1638746578060885800,5.1238857421875,0.08723813847005367,0.007031807466084137,-0.0995175186002627
1638746578070907600,5.13390771484375,0.11260521943867206,0.009803409337578341,-0.04907707891259342
1638746578080929800,5.1439296875,0.12746844204962252,0.047521903626155104,0.006068396660871804
1638746578090950700,5.15395068359375,0.11882277877926825,0.0548597539672628,0.014458368137106298
1638746578100972500,5.16397265625,0.12168284438550471,0.05363712597028352,0.025655250260233877
1638746578110993700,5.17399365234375,0.09116904817819595,0.05582334743556566,0.020495821670442817
1638746578121015800,5.184015869140625,0.061573535859584805,0.05043222898175008,-0.04271810180731118
1638746578131036700,5.19403662109375,0.018398410999774933,0.061996948903426524,-0.10699406502600758
1638746578141058600,5.20405859375,0.0020569325298070906,0.06600602928115985,-0.16905582279395312
1638746578151079700,5.21407958984375,-0.006865209594368934,0.07223319670031778,-0.19340441090241073
1638746578161101600,5.2241015625,-0.02126023017168045,0.09176119625191204,-0.15463011481743305
1638746578171123700,5.234123779296875,-0.0024275194078683853,0.07830172122535295,-0.10700465948525816
1638746578181144800,5.244144775390625,0.06323650063574314,0.07211335601320024,-0.08438833852950484
1638746578191166700,5.254166748046875,0.09494096793234348,0.058958138329954814,-0.04794040303286165
1638746578201187600,5.2641875,0.0825046802073717,0.04082441528150812,-0.01595788597986102
1638746578211209700,5.274209716796875,0.05658405700922012,0.009227513712341897,0.039609468267485494
1638746578221230800,5.28423095703125,0.06414075599908828,-0.019891270772879943,0.07421703659445048
1638746578231252700,5.294252685546875,0.12102467273771762,-0.038798421312659044,0.08045600404925644
1638746578241273600,5.304273681640625,0.14841186135709286,-0.059299302750709465,0.06038107467200607
1638746578251295500,5.31429541015625,0.16162205606400964,-0.07414525913302786,0.015522417172044514
1638746578261317600,5.324317626953125,0.1299748719125986,-0.06571179557493888,-0.0003004807839170098
1638746578271338800,5.3343388671875,0.07994681241810321,-0.0349371153751621,0.010029738039895892
1638746578281360600,5.344360595703125,0.07018178972899913,-0.042251224081078544,0.056202254617400464
1638746578291381500,5.354381591796875,0.0940682767510414,-0.08754179759174585,0.12550243920627982
1638746578301403600,5.364403564453125,0.1897322982609272,-0.11449887856501154,0.16749072890169917
1638746578311424800,5.3744248046875,0.2675491129130125,-0.1132416085129138,0.19587427161466328
1638746578321446700,5.38444677734375,0.2700409297287464,-0.10486306261299178,0.2068458936145529
1638746578331468500,5.394468505859375,0.20484978789389133,-0.09119752535400912,0.19189495618753133
1638746578341489700,5.40448974609375,0.13065350182652472,-0.07029632861991413,0.15980850383602083
1638746578351511800,5.41451171875,0.11972878770828246,-0.060351839444367214,0.1481893777128309
1638746578361532700,5.42453271484375,0.1485842953145504,-0.04418683178615756,0.08477795890159905
1638746578371554600,5.434554443359375,0.1856885758280754,-0.0017653246055124327,-0.02344900892022997
1638746578381575700,5.44457568359375,0.14158230759799478,0.04319134077567141,-0.12065755645837634
1638746578391597800,5.454597900390625,0.058933250483870506,0.11558211635760962,-0.20808701624944806
1638746578401618700,5.46461865234375,-0.016915478965640066,0.17335713671706615,-0.28746055882424115
1638746578411640600,5.474640625,-0.06769698717594147,0.19194590092347932,-0.3153688852408901
1638746578421662500,5.484662353515625,-0.11094050109684467,0.17380685324594378,-0.2973218814946711
1638746578431683800,5.494683837890625,-0.09712240362465381,0.17398991819527,-0.2638484682967886
1638746578441705700,5.504705810546875,-0.08372808452248573,0.18187791323242708,-0.2324756441073492
1638746578451726600,5.5147265625,-0.07435878315269946,0.172101802893728,-0.2200438498944044
1638746578461748500,5.52474853515625,-0.07963526225090026,0.1331285958363209,-0.16482881621606646
1638746578471769600,5.53476953125,-0.07729132947325706,0.05304063508159015,-0.07352938312385231
1638746578481791700,5.544791748046875,-0.0018114333361387252,-0.039397181790252214,-0.019588059175759554
1638746578491812600,5.5548125,0.12017302434444427,-0.12004408246884121,0.0011553440475836395
1638746578501834800,5.564834716796875,0.21044307785630226,-0.1607877971969545,-0.002776113649830222
1638746578511857000,5.57485693359375,0.22920447694957255,-0.199292409495078,0.042675760502927006
1638746578521877800,5.584877685546875,0.2292757886201143,-0.2446225934969261,0.1529061771016568
1638746578531899600,5.594899658203125,0.25087270340025425,-0.19227522420939058,0.3220193926386535
1638746578541920800,5.604920654296875,0.23831366607844828,-0.013823613897524773,0.5067182998422533
1638746578551942700,5.614942626953125,0.12514613658189772,0.13665052288477308,0.6147789346538484
1638746578561963800,5.6249638671875,0.02101180836856365,0.16063081653695552,0.5113199484188109
1638746578571985700,5.634985595703125,0.024559856238961217,0.23367289106789976,0.17342041121162474
1638746578582006800,5.6450068359375,0.013613514810800552,0.3193001968078315,-0.17121705594845116
1638746578592028700,5.655028564453125,0.024447628036141394,0.2560674955643713,-0.424800150818564
1638746578602050800,5.66505078125,0.11138415321111679,0.09691300779082812,-0.5640395120196044
1638746578612071700,5.67507177734375,0.20843466064333915,-0.06000389822295401,-0.5395734350113198
1638746578622093600,5.685093505859375,0.2653179928600788,-0.12202784929773769,-0.40325850988961753
1638746578632114700,5.69511474609375,0.23484160605370996,-0.09142214615643024,-0.1912461916889064
1638746578642136600,5.705136474609375,0.1317255149722099,-0.06431494352221488,0.05300714837051928
1638746578652157700,5.71515771484375,0.025480478215217588,-0.11386281828433274,0.2411903540259227
1638746578662179600,5.7251796875,0.037167408877611156,-0.12749135713432916,0.31670188741032035
1638746578672200700,5.73520068359375,0.13090952241420745,-0.071027720767539,0.2753328986570239
1638746578682222600,5.74522265625,0.1837368572384119,-0.03402106454274617,0.19402259759968146
1638746578692244700,5.75524462890625,0.19764555560350416,-0.029305128237023016,0.12028105129618197
1638746578702265900,5.765265869140625,0.18973522087037561,-0.010637951332423835,0.061748928959108884
1638746578712287700,5.775287841796875,0.17380933746397495,0.011037622741074301,0.011531831432227045
1638746578722308600,5.78530859375,0.13311550802588462,0.0040018058201530945,-0.0003175232502631843
1638746578732330800,5.795330810546875,0.11476327425539493,-0.02038338340506889,0.021069511638861147
1638746578742352100,5.80535205078125,0.11840893728137016,-0.060143238194985314,0.061278644566237925
1638746578752374000,5.8153740234375,0.14222060550153254,-0.09365763185722753,0.08850295250779017
1638746578762396000,5.82539599609375,0.1579126801520586,-0.09000540209314785,0.07852286229589954
1638746578772416800,5.835416748046875,0.16744740121662616,-0.06915088034525979,0.00016028686193749308
1638746578782439000,5.84543896484375,0.1371761815935373,-0.05812855107143987,-0.1126382266591303
1638746578792460000,5.8554599609375,0.06426467463970184,-0.04516928521855734,-0.16116408316344022
1638746578802482000,5.86548193359375,0.008576689687371254,-0.026419206670322454,-0.187638248591125
1638746578812502800,5.875502685546875,-0.010882044020295143,0.012717693915660492,-0.17630846080332993
1638746578822525000,5.88552490234375,0.010844050097465514,0.013323687851638533,-0.12229208059133961
1638746578832546000,5.895546142578125,0.0502455016374588,0.02900548313674517,-0.06015601547816768
1638746578842568000,5.90556787109375,0.07633212905228137,0.0454539976111846,-0.009613156595639884
1638746578852589800,5.91558984375,0.06378945834338665,0.04503660788275301,0.04597489337986335
1638746578862611000,5.92561083984375,0.04823123920559883,0.007845233607664703,0.08742808981789275
1638746578872633000,5.935633056640625,0.03969838865995407,-0.01878963424048852,0.10633978410204872
1638746578882654000,5.945654052734375,0.05495148737132549,-0.034222509965556674,0.0895835690850392
1638746578892675800,5.95567578125,0.0622884061306715,-0.03757393015215639,0.056560347340069705
1638746578902697000,5.965697021484375,0.09374386710226536,-0.019969514507707207,0.013334880532510578
1638746578912719000,5.975718994140625,0.09320026174485684,0.014838919286755844,-0.019450678265374152
1638746578922740000,5.985739990234375,0.08923369620144367,0.025524449787684714,-0.030588158351462332
1638746578932761900,5.995761962890625,0.09561375262737273,0.06372247122151312,-0.024013547467812896
1638746578942783700,6.00578369140625,0.09451134434342384,0.09383904370558448,0.0019576186074875294
1638746578952805000,6.01580517578125,0.0923562121361494,0.08185297483298927,0.012916435924731195
1638746578962827000,6.025826904296875,0.10545593220591544,0.07771592982718721,0.0347671062702313
1638746578972847900,6.035847900390625,0.1154004031151533,0.08020232154913245,0.05314885839615017
1638746578982869800,6.045869873046875,0.12577683570086956,0.058678033613786096,0.09809508458171039
1638746578992891000,6.055890869140625,0.11937456744313239,0.03260249384855851,0.1072588534420356
1638746579002913000,6.0659130859375,0.12957272085249424,0.024011264179181306,0.10807979616979137
1638746579012935000,6.075934814453125,0.13467793503701686,-0.004868857278535142,0.10458462926410138
1638746579022955800,6.085955810546875,0.11538871267735958,-0.031614414392970504,0.09890099413711577
1638746579032978000,6.09597802734375,0.1287163962841034,-0.032975190485315393,0.08033486188761889
1638746579042999000,6.1059990234375,0.12542904517650605,-0.02387767352792434,0.04370749643715098
1638746579053021000,6.11602099609375,0.10613397759795189,-0.028156446825666353,0.020678210766334085
1638746579063042000,6.1260419921875,0.09687515086531638,-0.03572857171352953,0.019288583038840443
1638746579073064000,6.13606396484375,0.10272972211241721,-0.045684806125797325,0.050271001404896376
1638746579083084800,6.146084716796875,0.13984277045428753,-0.07072877435358241,0.11947658477919175
1638746579093107000,6.15610693359375,0.1980102972626686,-0.1406157915202435,0.21768892079871147
1638746579103128800,6.16612890625,0.24592998630106447,-0.2824551517523825,0.2404649440945126
1638746579113150000,6.17614990234375,0.41728842348158357,-0.25497670465297995,0.08405499665560201
1638746579123172000,6.186172119140625,0.4459294115543365,-0.005553880400629714,-0.07105263601308688
1638746579133193000,6.19619287109375,0.10079378561377525,0.2065652683085762,-0.26589688872657713
1638746579143214800,6.20621484375,-0.3007277444154024,0.2591670324822888,-0.35558238381613044
1638746579153236000,6.216236083984375,-0.4458820652812719,0.2692062690028921,-0.2999099434928037
1638746579163257900,6.2262578125,-0.30877368822693824,0.22333814219944179,-0.291610353713762
1638746579173279000,6.236279052734375,-0.02002104376554489,0.1270924666103907,-0.2901797363887541
1638746579183300900,6.24630078125,0.20636019245684145,0.07569955763663165,-0.22997734275190157
1638746579193323000,6.256322998046875,0.2579138540834188,0.010871449561044574,-0.12993108756979926
1638746579203344000,6.26634375,0.1910790366947651,-0.11762303846753201,-0.03606947583938017
1638746579213366000,6.276365966796875,0.10118015458285808,-0.21694427644386885,0.03041773368800059
1638746579223387000,6.286386962890625,0.04269406334459781,-0.2217715504698455,0.09177349861105903
1638746579233409000,6.296408935546875,0.005162497329711913,-0.17537907099872826,0.13412097700769082
1638746579243430000,6.306429931640625,0.009667992055416106,-0.126806133082835,0.16331578130461274
1638746579253451800,6.31645166015625,0.0918114377349615,-0.07073131337054073,0.17309998361822218
1638746579263473200,6.32647314453125,0.2007423525750637,-0.008996011077985167,0.1668312420796603
1638746579273495000,6.3364951171875,0.25206045188009735,0.036593253118311984,0.12552748231599106
1638746579283517000,6.346516845703125,0.21643325818181036,0.05745662032635882,0.052751529641635715
1638746579293537800,6.356537841796875,0.14459960959255694,0.05847445559939369,-0.01053253646288067
1638746579303560000,6.366559814453125,0.07682312743961811,0.03429610035815276,-0.05938603575266897
1638746579313581000,6.3765810546875,0.05111176307797432,0.017367086057504637,-0.06354366688877344
1638746579323603000,6.38660302734375,0.08585691324472428,-0.004124148991610854,-0.03398220297023654
1638746579333623800,6.396623779296875,0.1354167707055807,-0.02672063273573294,-0.026230328468140215
1638746579343646000,6.40664599609375,0.16477379809319972,-0.031596970067825164,-0.009927373643964529
1638746579353667000,6.4166669921875,0.15417057101428508,-0.026185731274588033,0.0007817249622195959
1638746579363689000,6.42668896484375,0.12274959683418273,-0.007144474060321226,0.016268340168520808
1638746579373710800,6.4367109375,0.10956336752474308,0.0150784545305185,0.03242531065074727
1638746579383732000,6.44673193359375,0.07002163073122501,0.03171449550027028,0.03277947611697018
1638746579393754000,6.456754150390625,0.07447159587740898,0.04839125207290053,0.03621840105708688
1638746579403775000,6.46677490234375,0.07773088993430137,0.061279009892418974,0.043520175437815486
1638746579413796900,6.476796875,0.08458265552520751,0.05952907921886071,0.0368277468607761
1638746579423818000,6.48681787109375,0.09862754749059677,0.03736415529241785,0.025118001578375695
1638746579433840000,6.496840087890625,0.09068097240030765,0.035501804619794707,0.0292310081214644
1638746579443862000,6.506862060546875,0.09501870934367179,0.02206785676013678,0.023503880912624297
1638746579453883000,6.5168828125,0.07766133182942866,0.01031862885071896,0.0259095720811747
1638746579463904800,6.52690478515625,0.07497428470253945,0.004547160176653415,0.024399423246551304
1638746579473926000,6.53692578125,0.06137012224197387,-0.005236101422039792,0.029109171840082854
1638746579483948000,6.546947998046875,0.06528291177153588,-0.0006255206203553825,0.028362189397681502
1638746579493969000,6.556968994140625,0.06590250497460365,0.00034518757532350715,0.015262560659460722
1638746579503990800,6.56699072265625,0.08746551748514175,0.004284371921466663,0.017708967430889604
1638746579514012000,6.577011962890625,0.0909270561158657,0.0033912864061072467,-0.0009337737187743186
1638746579524034000,6.587033935546875,0.09065116178393363,0.003715358128165826,-0.0009312164355069399
1638746579534056000,6.597055908203125,0.10817805064618587,0.010127024401910602,-0.00018207856863737106
1638746579544076800,6.607076904296875,0.10086217467486858,0.003953806526539847,0.0007929587422870099
1638746579554099000,6.617098876953125,0.1053659158349037,0.00022711415360681712,0.0029504107708111403
1638746579564119800,6.627119873046875,0.10448036517202854,-0.015675434042979032,0.008730766004230827
1638746579574142000,6.637141845703125,0.10628712233304977,-0.029048710357118396,0.003771079503931105
1638746579584163000,6.6471630859375,0.11063538067042827,-0.035576733019528906,0.005065411897096783
1638746579594185000,6.65718505859375,0.11482874070703983,-0.03594141987976618,0.006546846093889325
1638746579604205800,6.667205810546875,0.11153905151188373,-0.036881011417973786,0.01823023309232667
1638746579614228000,6.67722802734375,0.11722703402042388,-0.022368273611972106,0.026099797423649578
1638746579624249900,6.687249755859375,0.09896890827417373,-0.009027027270756662,0.02637700692983344
1638746579634271000,6.69727099609375,0.10630056633651255,-0.002896716955350712,0.03229408548651263
1638746579644292900,6.70729296875,0.11138123060166835,0.004578240301506594,0.030131939016561953
1638746579654314000,6.71731396484375,0.10089899955391883,0.007923093750001862,0.027018044779729095
1638746579664336000,6.7273359375,0.10209083968698977,0.013442587823839858,0.02423656083503738
1638746579674357000,6.73735693359375,0.0990875662177801,0.014018195754708722,0.017772296724375337
1638746579684379000,6.74737890625,0.09803484229445457,0.01275752816912718,0.0022663557630963624
1638746579694399700,6.757399658203125,0.09190028506219386,0.008798817138606682,-0.012484748242888598
1638746579704422000,6.767421875,0.09773790517449378,0.011534041655622423,-0.021902236135955898
1638746579714444000,6.777444091796875,0.10477554872632026,0.014127126888744533,-0.026748032199312
1638746579724465000,6.78746484375,0.11061901405751705,0.011068999693449585,-0.029313882365636527
1638746579734486800,6.79748681640625,0.1005997243463993,0.009973139881296082,-0.026916849427577105
1638746579744508000,6.8075078125,0.10075812977850436,0.012670206078700721,-0.02561610555993393
1638746579754529800,6.81752978515625,0.08894377334415912,0.005525649819988757,-0.0188123803618364
1638746579764550700,6.827550537109375,0.09149228878319263,0.004120020805764943,-0.008049998932145535
1638746579774572500,6.837572509765625,0.10002630837261677,0.01268640829483047,-0.003204659526515752
1638746579784594000,6.847593994140625,0.08536065416038036,0.020608698327234012,0.003715385527629405
1638746579794615800,6.85761572265625,0.08895195665061473,0.01595265268231742,0.0010930376674048602
1638746579804637700,6.8676376953125,0.09298749577701092,0.004960298421652987,0.006294113441836088
1638746579814658600,6.877658447265625,0.08610124339461327,-0.0023140856286510826,0.006626231473032385
1638746579824680700,6.8876806640625,0.08789747916162013,-0.00403531079753302,-0.0009378105730749666
1638746579834701800,6.897701904296875,0.09462649515569209,-0.002825213488563895,-0.00624963497929275
1638746579844723700,6.9077236328125,0.09268237535059451,-0.006587799158785492,0.004535414939932525
1638746579854744600,6.91774462890625,0.08849661409854888,-0.009710333359800278,-0.000627447715960443
1638746579864766700,6.9277666015625,0.10586217491924763,-0.01482177635570988,0.005911324669327586
1638746579874788900,6.937788818359375,0.10482231047749518,-0.008770833153137937,-0.0019221637016162275
1638746579884809700,6.947809814453125,0.0965957494020462,-0.013123374939989298,-0.0017631189486943183
1638746579894831600,6.95783154296875,0.09989303738176822,-0.01184687046445906,0.006023388475365936
1638746579904852700,6.967852783203125,0.09630874915421009,-0.006293812047736719,-0.0031720541648566723
1638746579914875000,6.977875,0.09227028741836547,0.010925389971677213,-0.005941847671754658
1638746579924895700,6.987895751953125,0.09990355877578258,-0.011717307534348218,-0.009992821829300374
1638746579934917600,6.997917724609375,0.10933014329075813,-0.011416817617276682,0.0002484948683530092
1638746579944938800,7.007938720703125,0.10619184526503085,-0.005903808083152398,0.003799319217726588
1638746579954961000,7.0179609375,0.10858312431573867,-0.005711308585200458,0.002292567916586995
1638746579964982800,7.027982666015625,0.10094809939265251,-0.01668761589336209,0.013886358669120817
1638746579975003600,7.038003662109375,0.11321721385717391,-0.01167640926837921,0.023071279915329066
1638746579985025500,7.048025634765625,0.10348083274066448,-0.006114637822238728,0.02686084492402151
1638746579995046700,7.058046630859375,0.09958207173645496,-0.004675097405258566,0.02224566101245582
1638746580005068800,7.06806884765625,0.09807400526106357,-0.00958241439750418,0.008781071419361979
1638746580015089700,7.078089599609375,0.0908838014960289,0.004852408467233181,0.006220043558627366
1638746580025111600,7.088111572265625,0.10330196904242038,0.012336754606943577,-0.0034944545196369287
1638746580035132700,7.098132568359375,0.09731178871691226,0.00934090639236383,0.0005450118632055819
1638746580045154800,7.10815478515625,0.09521920035183429,0.01249711453411728,0.00264121695747599
1638746580055176700,7.1181767578125,0.0943254663825035,0.018437665297929198,-0.0010477737535722553
1638746580065197800,7.12819775390625,0.0901379515647888,0.015743037652783096,0.0007502338454127311
1638746580075219700,7.1382197265625,0.09418459660708904,0.01765008598365821,0.010889989864733069
1638746580085240800,7.14824072265625,0.09164309543073176,0.008722381768375635,0.012674005470983683
1638746580095262700,7.1582626953125,0.0967307739585638,-0.001272622884856537,0.01803277429146692
1638746580105283800,7.168283935546875,0.0940337899595499,-0.0004766410684213042,0.014610709154605864
1638746580115305700,7.1783056640625,0.0920861630231142,0.0037258338564075525,0.02313793367706239
1638746580125326600,7.18832666015625,0.10719839195907116,0.0008026216197758913,0.010483473156765103
1638746580135348700,7.1983486328125,0.1080985556691885,0.0023287078090477734,0.010650007096398621
1638746580145370600,7.20837060546875,0.09732464819848537,0.005985613748244941,0.0136212597258389
1638746580155391700,7.218391845703125,0.09313421077132225,0.0047158312744461,0.0036936303535476324
1638746580165413600,7.22841357421875,0.09732815532982349,0.0052920054608955975,0.009413725033402442
1638746580175434800,7.238434814453125,0.10197042817771435,0.0005425276451744139,-0.006898563874699175
1638746580185456600,7.24845654296875,0.10675824697613716,0.004788613382866606,0.0020990911711007356
1638746580195477800,7.258477783203125,0.1043687214910984,0.0071804038902278985,0.0020698650766164065
1638746580205499600,7.268499755859375,0.10077741900086402,0.0008063570799771696,0.004437909382209181
1638746580215520500,7.2785205078125,0.09075169954895973,-0.002013897105678916,0.0006852057851850986
1638746580225542700,7.288542724609375,0.10152677606344222,-0.0028966530232690272,0.015300335386581718
1638746580235564800,7.298564697265625,0.09614332945942879,-0.009177011934388428,0.014172171606868504
1638746580245585700,7.308585693359375,0.09465104507505893,-0.010509831440728158,0.016144111000653355
1638746580255607800,7.31860791015625,0.09345511328876017,-0.009556658901739864,0.01726728807799518
1638746580265629000,7.32862890625,0.10153846650123595,-0.0095211126643233,0.0036884975207038223
1638746580275650800,7.33865087890625,0.10752455517351626,0.0010165383650921284,0.008721486719232053
1638746580285671700,7.348671630859375,0.10453355666399002,0.0030527934330515562,0.008931348343938588
1638746580295693600,7.358693603515625,0.09481003502905368,0.009189615687634795,0.008502217945363372
1638746580305715000,7.36871484375,0.09271978475153446,0.01175018689064309,0.0050225226034410295
1638746580315736800,7.37873681640625,0.09002806144952774,0.011855647425958887,0.005672584010008723
1638746580325758700,7.3887587890625,0.09347323346734046,0.011646982244495301,0.009389028983563185
1638746580335779600,7.398779541015625,0.0862953046619892,0.01101735170460306,0.006815506967436522
1638746580345801700,7.4088017578125,0.10111176552176475,0.010017463080212473,-0.007068404016271233
1638746580355822800,7.41882275390625,0.10380758047699927,-0.003531936985813081,-0.012808902163337915
1638746580365844700,7.4288447265625,0.10156886163949966,-0.00040333837019279595,-0.017174677891097962
1638746580375865600,7.438865478515625,0.09887655381560324,-0.0057651119985152035,-0.022469222368951887
1638746580385887700,7.4488876953125,0.09139642719328403,-0.013346552703995257,-0.015970562798343597
1638746580395908900,7.458908935546875,0.08930266978442668,-0.006296022271132096,-0.015267182035651057
1638746580405930800,7.4689306640625,0.09888181451261042,0.0018536285100504756,-0.00801648025503382
1638746580415952600,7.47895263671875,0.0955932943612337,-0.0017241203788667917,-0.0013677081566303968
1638746580425973800,7.488973876953125,0.10232757105231284,-0.006664727719360962,0.003749452194012701
1638746580435996000,7.498995849609375,0.10756079553067684,0.00014943667436018585,0.003290949570480734
1638746580446016800,7.509016845703125,0.10037117628753185,-0.002972193344356492,0.008257723398692905
1638746580456038700,7.51903857421875,0.09363046985566616,-0.0039237401818390935,0.0073573039602488274
1638746580466059800,7.529059814453125,0.09601824177503586,0.006266695711947977,0.001712868332490325
1638746580476081700,7.53908154296875,0.10454173997044562,-0.0006669851419050247,0.006792509684339166
1638746580486103800,7.549103759765625,0.10513678325414658,-0.00046903315070085224,0.010219725920353084
1638746580496124700,7.559124755859375,0.10168985767066478,0.0007970869281329214,0.012981263055559246
1638746580506146600,7.569146484375,0.10512801542580127,0.0035058344301767646,0.008631853940710425
1638746580516167700,7.579167724609375,0.09480068267881869,-0.00007017002622596919,0.005036185802612453
1638746580526189800,7.58918994140625,0.08836158954203129,-0.003679711426049471,0.0021712796244770286
1638746580536210700,7.599210693359375,0.08118307621479035,-0.011537137795006855,0.0035437187551520762
1638746580546232600,7.609232666015625,0.09016074791848659,-0.008839797602966427,-0.00012685951637104152
1638746580556253700,7.619253662109375,0.0962993968039751,-0.0023861096852459012,-0.0017189327470958232
1638746580566275800,7.62927587890625,0.09824994634985923,-0.002777063497900963,0.0036374797195196148
1638746580576297700,7.639297607421875,0.09466682716608046,0.009437480368325486,-0.0028007914333604274
1638746580586318800,7.64931884765625,0.10215455257296562,0.008775902053900062,0.006915076618082821
1638746580596340700,7.6593408203125,0.10156009381115436,0.012949242215789854,0.008100980200711637
1638746580606361600,7.669361572265625,0.1051525653451681,0.012440050584636628,-0.007981956930924206
1638746580616383700,7.6793837890625,0.10410451759696006,0.009672951358323916,-0.004398856013454497
1638746580626404900,7.68940478515625,0.09901216289401053,0.018146956989355385,0.005335241814423352
1638746580636426800,7.6994267578125,0.08838613946139812,0.006620979909179731,0.00990570980142802
1638746580646447600,7.709447509765625,0.09840659821629523,-0.004801189736649393,0.020834077181480823
1638746580656469800,7.7194697265625,0.10319149440526962,0.0019326211635489017,0.017048256766144184
1638746580666491600,7.72949169921875,0.1144160682529211,-0.003868265401246026,0.017570234813634306
1638746580676512800,7.7395126953125,0.09660802436172962,-0.015458886949159204,0.0123929417735897
1638746580686534700,7.74953466796875,0.0960071358591318,-0.00506246188818477,0.004735120496805757
1638746580696555500,7.759555419921875,0.10288988111019134,0.0013144344662781803,-0.006494805379398167
1638746580706577700,7.76957763671875,0.09092062637507915,0.005266432628221809,0.000045757104177027935
1638746580716598800,7.779598876953125,0.09600655133724212,0.004455435905745253,0.0013366736975498497
1638746580726620700,7.78962060546875,0.10393968242406844,0.0002969005873426795,-0.0006077566348016262
1638746580736641500,7.7996416015625,0.1002034185051918,-0.0030750600637868045,0.009090484428405762
1638746580746663400,7.809663330078125,0.09422434409558772,0.0036899862248916176,-0.0004493146700784564
1638746580756685600,7.819685546875,0.0930272432655096,0.000588522211369127,0.013247531042620539
1638746580766706400,7.82970654296875,0.0955716670513153,-0.006164239984471351,0.013638521387893706
1638746580776728300,7.839728271484375,0.10155483311414717,-0.004653798888903111,0.01497387991119176
1638746580786749400,7.84974951171875,0.0991618004977703,-0.00002738119727000594,0.015437752829585224
1638746580796771600,7.859771484375,0.09616671033501624,-0.00925145627693273,0.01356794036971405
1638746580806792400,7.86979248046875,0.09960837522149085,-0.008760384824359788,0.012144720899872482
1638746580816814300,7.879814453125,0.09646832363009453,-0.0073483260693494225,0.00650596609422937
1638746580826835500,7.88983544921875,0.09901157837212085,-0.0017993319063913076,0.0005251198526471853
1638746580836857300,7.899857421875,0.1023076973080635,-0.002152574924007058,-0.0019114231118932366
1638746580846879500,7.90987939453125,0.10231061991751193,-0.004860253846971318,-0.012103822633903473
1638746580856900400,7.919900390625,0.09737842421233653,-0.0012411135017406194,-0.01188095539715141
1638746580866922500,7.929922607421875,0.09155191001594067,-0.0004901033381931484,-0.0023790588899515568
1638746580876943400,7.939943359375,0.10442483559250831,-0.00491113465083763,-0.011446290306933223
1638746580886965500,7.949965576171875,0.09201017517745494,0.008479275461193174,0.00198118214616552
1638746580896986400,7.959986328125,0.08632803788781165,0.007801997254136949,-0.007132281299028545
1638746580907008500,7.970008544921875,0.09500818794965743,0.009515943298861384,-0.008996212007384747
1638746580917029400,7.980029296875,0.09919920989871024,0.003111665747128427,-0.0006654781714081763
1638746580927051500,7.990051513671875,0.10413432821333407,0.009345180708682165,-0.00009281111629679799
1638746580937073400,8.000073486328125,0.10038929646611214,-0.001419867602130398,0.006162175891548395
1638746580947094500,8.010094482421875,0.10802081425786017,-0.0025575389957055448,0.020358733021002263
1638746580957116400,8.020116455078124,0.10292729051113128,-0.006019159824820235,0.013358571935351938
1638746580967137300,8.03013720703125,0.09499825107753276,-0.0032712219567038116,0.007473952609859407
1638746580977159400,8.040159423828126,0.08975976590216159,0.005226137150451541,0.00650063233198598
1638746580987180500,8.0501806640625,0.09574234744310378,0.003765197752416134,0.004692450398858636
1638746580997202400,8.060202392578125,0.10831132163703441,0.0066131710620597,0.002671064106468111
1638746581007224300,8.070224365234376,0.10292144529223442,0.006476356407254934,0.0015862280118279159
1638746581017245400,8.080245361328124,0.10008183795213699,0.0005773249639198184,0.00023269451102241872
1638746581027267600,8.090267578125,0.09080781365036963,0.004701537887612357,0.00231541906921193
1638746581037288400,8.100288330078126,0.09439210187792778,0.008159213193971664,0.015395082731638103
1638746581047310300,8.110310302734375,0.11562836665213107,0.019713612651033326,0.0038553967865183948
1638746581057331200,8.120331298828125,0.12354980730116366,0.01762981951376423,-0.006413556836731732
1638746581067353600,8.130353515625,0.1082815110206604,0.01492372062653303,-0.021461049973405897
1638746581077374500,8.14037451171875,0.08059913884699345,0.005941683274973184,-0.02273253121394664
1638746581087396400,8.150396240234375,0.0542670122385025,0.007294604854425415,-0.011928776594251393
1638746581097417500,8.16041748046875,0.05786532899141311,-0.013054036030825228,0.012384046081081032
1638746581107439600,8.170439697265625,0.07387889068126678,-0.015720250432239846,0.015617274114955216
1638746581117461500,8.18046142578125,0.10187281302213669,-0.019766502748895437,0.014202603277750312
1638746581127482400,8.190482421875,0.10397767634689807,-0.027011295378534122,-0.0008422960430383682
1638746581137504300,8.200504150390625,0.09740355865359306,-0.02617634239173494,-0.02106973083456978
1638746581147525600,8.210525634765625,0.10249591335654258,-0.009215864373743533,-0.03318553616721183
1638746581157547500,8.220547607421874,0.0999590883553028,-0.006162029761075973,-0.029738263523858038
1638746581167568400,8.230568359375,0.10011457117795944,0.008657043180894107,-0.0018417736754752694
1638746581177590300,8.24059033203125,0.11493395464718341,-0.0001496832695323974,0.018170958919450638
1638746581187612400,8.2506123046875,0.10565993034541606,0.004403678319044411,0.03391016064733267
1638746581197633500,8.260633544921875,0.10715455281734466,0.010430610458366572,0.036113990834541615
1638746581207655400,8.270655517578126,0.10610241341590881,0.010616113959951325,0.04156661195093766
1638746581217676300,8.28067626953125,0.10952946525514125,0.004176847293227911,0.03531272092163563
1638746581227698400,8.290698486328125,0.10577449663579463,-0.00549110822957009,0.03251077871080488
1638746581237719600,8.300719482421876,0.09288871157765388,-0.0070180072695948175,0.0091015538116917
1638746581247741400,8.310741455078125,0.09961714304983615,-0.007076377260172739,0.003954929904546588
1638746581257762600,8.320762451171875,0.09288403540253638,0.0024565445729531348,-0.005935290066804736
1638746581267784400,8.330784423828124,0.09408639692962169,-0.0022034191952552645,-0.003979333693441003
1638746581277806600,8.340806640625,0.10620938092172146,-0.0005346183333545922,0.002538651632145047
1638746581287827500,8.350827392578125,0.10202478871345519,0.009475218562828376,-0.008515479285735636
1638746581297849300,8.360849365234374,0.09723521634936332,0.0032801176492124793,0.009500161207839846
1638746581307870500,8.370870361328125,0.106655955645442,-0.0061946168564260004,0.008863288076408207
1638746581317892600,8.380892578125,0.1112836154460907,-0.006219404237810522,0.014772311190795152
1638746581327913500,8.39091357421875,0.10917290690243243,0.0016369444189127534,0.02594630562867969
1638746581337935400,8.400935302734375,0.11334054797589778,0.0030238413332030175,0.019969770236033944
1638746581347956500,8.41095654296875,0.1173521217048168,-0.004265658087842166,0.03415834498843178
1638746581357978400,8.420978271484374,0.1209124445348978,-0.009849961026199162,0.042790125863905994
1638746581368000500,8.43100048828125,0.12805121037364006,-0.005618269140040501,0.03724474843014031
1638746581378021400,8.441021484375,0.11439210285544395,-0.008317426829831675,0.03220315580004826
1638746581388043500,8.45104345703125,0.10357318719923496,-0.014002568927314132,0.02285075076613575
1638746581398064400,8.461064453125,0.11265957997441291,-0.003968328242236748,-0.010483765417709946
1638746581408086500,8.47108642578125,0.09347089537978172,0.019174473406188188,-0.03447994162561372
1638746581418107400,8.481107421875,0.07384148128032685,0.018788962953630833,-0.031286369748692956
1638746581428129500,8.491129638671875,0.05151975935697555,-0.010144194732420146,-0.02565621837461367
1638746581438150400,8.501150390625,0.07259118895828723,-0.01887248565177433,-0.012596264059655367
1638746581448172300,8.51117236328125,0.10742577097415923,-0.02909853171505965,-0.005699819076806306
1638746581458194400,8.5211943359375,0.13657237048149107,-0.042083658094983545,0.000138750883564353
1638746581468215600,8.531215576171874,0.1462526374965906,-0.04499293313780799,0.012238664527330547
1638746581478237400,8.541237548828125,0.14350187748372553,-0.02498862131135538,0.019284637516085057
1638746581488258300,8.55125830078125,0.11994973698258399,-0.012803385738003999,0.02257995273442939
1638746581498280400,8.561280517578124,0.08458031743764877,-0.001023178168432787,0.017927341155614705
1638746581508301600,8.571301513671875,0.059984220841526985,0.025821318408986552,0.024666257489193228
1638746581518323500,8.581323486328126,0.06366437065899372,0.05502089934572577,0.028853406980726866
1638746581528344300,8.59134423828125,0.09457681079506873,0.04709196950998157,0.02001395643763244
1638746581538366200,8.6013662109375,0.10259820468723774,0.006824886717135086,0.019832462390884757
1638746581548388600,8.611388671875,0.10941957513988017,-0.02111813655355945,0.029609230316709725
1638746581558409500,8.621409423828124,0.1183200899541378,-0.036504917247733096,0.03199607065431773
1638746581568431400,8.631431396484375,0.15250351458489894,-0.04325562448380515,0.03837117691049352
1638746581578452200,8.6414521484375,0.18637948070168495,-0.03575159639609046,0.04685430656289682
1638746581588474600,8.651474609375,0.18210194951295852,-0.021692082250304518,0.06034430459188297
1638746581598495500,8.66149560546875,0.12739420776963234,0.0011837481581605971,0.062168633942212906
1638746581608517400,8.671517333984376,0.07117723050713538,0.046030824818182735,0.05544204736724496
1638746581618539300,8.681539306640625,0.035302199527621266,0.06268856616308913,0.04808010376449674
1638746581628560600,8.691560546875,0.053746203234791755,0.08281939044604078,0.04145063915476203
1638746581638582500,8.70158251953125,0.07039747830629349,0.0905817315432243,0.005246778079681098
1638746581648603400,8.711603271484375,0.07254851886034011,0.07282466892059893,-0.0516287726894021
1638746581658625300,8.721625244140625,0.07622282345890999,0.04350535232801921,-0.07844451809637248
1638746581668646400,8.731646484375,0.08769991076290606,0.028226050596311687,-0.09040679510142653
1638746581678668500,8.74166845703125,0.0782441001534462,0.040332722774427385,-0.09800170720983296
1638746581688689400,8.751689453125,0.06625906332731246,0.041268414455652234,-0.10154694206863642
1638746581698711300,8.761711181640624,0.04245674745738506,0.038357066186750305,-0.09937124199736863
1638746581708732400,8.771732421875,0.029139585244655607,0.019315644575702024,-0.11721077700536697
1638746581718754600,8.781754638671876,0.007299509358406066,-0.009878977058129384,-0.10699742602687329
1638746581728776400,8.7917763671875,0.03362988240122795,-0.033625315823964774,-0.08205405036304146
1638746581738797300,8.80179736328125,0.08463584701716899,-0.030728315740823745,-0.0688111224303022
1638746581748819700,8.81181982421875,0.11902794596254825,-0.05939989074808545,-0.027278869406692684
1638746581758841000,8.821841064453125,0.14204057275950907,-0.08335150629505515,0.026283647824265063
1638746581768863000,8.831863037109375,0.1400572899878025,-0.04978415860286914,0.08546071700137108
1638746581778883800,8.8418837890625,0.11336743598282337,-0.041435660781338805,0.15186707984488457
1638746581788906000,8.851906005859375,0.08127484615147114,-0.030704112881328908,0.14129446709994226
1638746581798928100,8.86192822265625,0.05966448736786842,-0.021346054424764588,0.0786295558070764
1638746581808949000,8.871948974609374,0.05499941816627979,-0.026221834634430705,-0.014508344758674501
1638746581818971000,8.881970947265625,0.0464765044927597,-0.011583123228047042,-0.11070661927573382
1638746581828992000,8.891991943359375,0.010463526347279548,-0.021449688329175112,-0.19088106643725186
1638746581839014100,8.90201416015625,-0.01891512835025787,-0.016078425353299824,-0.23366649785973131
1638746581849035000,8.912034912109375,-0.02040799725651741,0.010617072941176593,-0.2291993989156559
1638746581859057000,8.922056884765626,0.004020926079154014,0.08422201465242542,-0.18875881358627228
1638746581869078000,8.932078125,0.0481891536295414,0.14871709138136358,-0.13751071077752858
1638746581879100000,8.942099853515625,0.09770926360189915,0.12181209678836166,-0.04527512934636324
1638746581889122000,8.9521220703125,0.15063304453790186,0.08328482513385824,-0.010200966420955955
1638746581899143000,8.962142822265625,0.16987901227772234,0.1327067536950577,0.033020974988956
1638746581909164800,8.972164794921875,0.10528408277034759,0.13320679390537551,0.0719637412423268
1638746581919186000,8.98218603515625,0.08750175784230231,0.09108260287060402,0.0668628013741225
1638746581929208000,8.9922080078125,0.10564297921061515,0.04768719545677304,0.066171220647078
1638746581939229000,9.00222900390625,0.10646949316263198,0.022994616216234862,0.06632942514978349
1638746581949250800,9.012250732421874,0.05957213290929794,-0.005172580332309007,0.145775539770443
1638746581959272000,9.02227197265625,0.07309913848042487,-0.07510543680153786,0.13888433721829205
1638746581969293800,9.0322939453125,0.15274842925667761,-0.12140175328864715,0.06714549077302218
1638746581979316000,9.04231591796875,0.19308394677639007,-0.13796664698463865,0.023194394838344304
1638746581989337000,9.052337158203125,0.18047230248451232,-0.15360405970532445,0.0009328969359397888
1638746581999359000,9.06235888671875,0.14540449623465537,-0.13704362298874184,-0.015184472188260405
1638746582009379800,9.0723798828125,0.11586743610501289,-0.06342236033035442,0.005384743511956185
1638746582019402000,9.082402099609375,0.08496785545051097,-0.01187191357417032,0.029548312176018953
1638746582029423000,9.092423095703126,0.10404723445177078,0.03948308367514983,-0.0008557035138830542
1638746582039445000,9.102445068359375,0.15215455501675604,0.08136576670478098,-0.06756554281599819
1638746582049465900,9.1124658203125,0.15102642776966094,0.09132661336008459,-0.05719073593178764
1638746582059487700,9.12248779296875,0.1063379757374525,0.053398969832854346,0.019571619497612117
1638746582069510000,9.132510009765625,0.07717559413909912,-0.049930398673145096,0.10595747025357559
1638746582079531000,9.142531005859375,0.1274345397800207,-0.14775347051359713,0.11472544472934677
1638746582089553000,9.152552978515626,0.17426643358170985,-0.17141091628642752,0.08321167769925668
1638746582099573800,9.16257373046875,0.15962240667939184,-0.1701818676818162,0.07091116344947368
1638746582109596000,9.172595947265625,0.12029285133183001,-0.13472736366931348,0.07560379651142284
1638746582119617000,9.182616943359376,0.08123100700974464,-0.06100937177133746,0.06667765406556427
1638746582129639000,9.192638916015625,0.10620119761526584,0.015907735828356816,0.07566721713645383
1638746582139659800,9.20265966796875,0.15062193862199783,0.09321410760711878,0.09895561040118336
1638746582149682000,9.212681884765624,0.10721417405009269,0.09905585590526461,0.061299559490103274
1638746582159704000,9.2227041015625,-0.018327683851122854,0.005472348730172961,-0.05618703878195956
1638746582169725000,9.232724853515625,-0.049584991902112956,0.05336081151324324,-0.1489103123985231
1638746582179746800,9.242746826171874,-0.02397591887116432,0.08610006521767936,-0.09426836590040474
1638746582189768000,9.252767822265625,0.07554068641364574,-0.005463352572964504,0.09468465508371592
1638746582199790000,9.2627900390625,0.23113807536065578,-0.13937005664231256,0.1716200289924629
1638746582209811000,9.27281103515625,0.37955812002420425,-0.15089401529533789,0.045499878012947734
1638746582219832800,9.282832763671875,0.3135977473825216,-0.01578309566853568,-0.07434086390351877
1638746582229854000,9.29285400390625,0.021693945413827895,0.06936085613439791,-0.08759031290858983
1638746582239876000,9.3028759765625,-0.15250293006300925,0.09039694956084712,0.009253821763955056
1638746582249898000,9.31289794921875,-0.11305354772806167,0.09374438769207336,0.11572830162895843
1638746582259918800,9.3229189453125,0.06557634176015853,0.09048703899709508,0.0750442446662113
1638746582269940700,9.332940673828125,0.220178874450922,0.12423533274675719,-0.04154410785818472
1638746582279961900,9.3429619140625,0.19987433756887912,0.1271943652154412,-0.11116744172051549
1638746582289984000,9.35298388671875,0.11204817007780074,0.08687017280734144,-0.13300475939409806
1638746582300004900,9.3630048828125,0.052938393983244895,0.04145816487409174,-0.11559937801966443
1638746582310027000,9.373027099609375,0.02960486466884613,-0.01815172449601814,-0.09219738657893613
1638746582320047900,9.3830478515625,0.02934825955927372,-0.017959389394847675,-0.1083784503228031
1638746582330070000,9.393070068359375,0.035711364850401876,0.0027087109694257376,-0.11782916463203727
1638746582340092000,9.403091796875,0.05014905552566051,0.00010715016890317201,-0.1138821075066924
1638746582350113000,9.413113037109374,0.07997954564392566,-0.017742120781820265,-0.07749646012391895
1638746582360135000,9.423135009765625,0.12340718396008014,-0.04255210672379471,-0.004339727971050888
1638746582370156000,9.433156005859376,0.1321054542005062,-0.06738537307665683,0.05653234508829191
1638746582380178000,9.443177978515624,0.1274871467500925,-0.07752618854190223,0.08958676568912341
1638746582390199000,9.453198974609375,0.09741349552571774,-0.07959756058901547,0.12780549198426305
1638746582400221000,9.463220947265626,0.10204115532636641,-0.06890697488705627,0.19172064080024137
1638746582410241800,9.47324169921875,0.1530360140264034,-0.056999451143387704,0.2567885581142269
1638746582420264000,9.483263916015625,0.22464812881946564,-0.04113532612789422,0.26541966313626614
1638746582430285800,9.493285888671876,0.2699146730005741,-0.013208121480839326,0.1823705738538876
1638746582440307000,9.503306884765625,0.216902044737339,0.03761118885604665,0.031208975397236643
1638746582450328800,9.513328857421875,0.09462591063380241,0.08774282745602541,-0.0850445922148414
1638746582460350000,9.523349853515626,-0.014620646026730537,0.08894673248622566,-0.14744924513632432
1638746582470371800,9.533371826171875,-0.03825871124565601,0.07341594934463501,-0.1824662527807057
1638746582480393000,9.54339306640625,0.018191490250825882,0.03204861369230784,-0.1918768542752601
1638746582490414800,9.553414794921874,0.07721709519326686,-0.004524893545918166,-0.17789176620570943
1638746582500435700,9.563435791015625,0.10542612158954143,-0.02756230772426352,-0.14046830020779744
1638746582510458000,9.5734580078125,0.09620879591107367,-0.06173346652849577,-0.08221099449042231
1638746582520480000,9.58347998046875,0.07529284913241863,-0.07106163217029533,-0.010982782714720815
1638746582530500900,9.5935009765625,0.07395370948314667,-0.0643550472037401,0.031462694429978726
1638746582540523000,9.60352294921875,0.07784078004956245,-0.046106657400215044,0.04030335054947063
1638746582550544100,9.613544189453124,0.07917933517694473,-0.01910598388039507,0.02827898635994643
1638746582560566000,9.62356591796875,0.08170622330605984,-0.0006594137568026781,0.00473318426804617
1638746582570587000,9.6335869140625,0.07705109097659588,0.007136984873609617,-0.028858046623226254
1638746582580608800,9.64360888671875,0.10518003787398338,0.004655022731609643,-0.04200228168815374
1638746582590630000,9.6536298828125,0.10295008686482905,0.011307904749549924,-0.042675888367090374
1638746582600652000,9.663652099609376,0.10912029993236064,0.03872189004430547,-0.026221451041940597
1638746582610674000,9.673673828125,0.10123042346537113,0.061185239794896915,-0.013374098298046738
1638746582620694800,9.68369482421875,0.09528408228158951,0.05524074350832961,0.01088891215249896
1638746582630717000,9.693717041015624,0.09038520432412624,0.048575851392187175,0.045804834042582655
1638746582640738000,9.703738037109375,0.08457564126253128,0.02499411033722572,0.0768396219166927
1638746582650760000,9.713760009765625,0.09371873266100883,0.007505909517547115,0.11089973069503903
1638746582660780800,9.72378076171875,0.10763970598578453,-0.0012098781132604925,0.12306131139816716
1638746582670803000,9.733802978515625,0.12783727536201475,-0.02237052036798559,0.14809780870554967
1638746582680825000,9.7438251953125,0.1439876151740551,-0.029667874301923438,0.16281091878870502
1638746582690846000,9.753845947265624,0.13259294545650482,-0.048284567694878204,0.14160364264696837
1638746582700867800,9.763867919921875,0.14603402630984783,-0.02766554890302941,0.09301977234510704
1638746582710889000,9.773888916015625,0.16607143668830393,-0.003536649693548679,0.003998166258074343
1638746582720911000,9.7839111328125,0.14436580083668232,0.025064645689632743,-0.09760392179759218
1638746582730932000,9.793931884765625,0.09828735575079918,0.0529111223838292,-0.17287176435291765
1638746582740953900,9.803953857421876,0.05237433035969734,0.06612755503528751,-0.23241691792374475
1638746582750974700,9.813974609375,0.010227379503846168,0.05419540830701589,-0.24408457763008773
1638746582760996600,9.82399658203125,-0.001530278307199478,0.01848170536905527,-0.18478784586237743
1638746582771017500,9.834017578125,0.031299393627047534,-0.018679355966160074,-0.1182529978009872
1638746582781039600,9.84403955078125,0.08117372386455536,-0.05991028795563615,-0.04148941852888092
1638746582791061800,9.854061767578125,0.10469196209609508,-0.08757504227422178,0.028631562657281756
1638746582801082600,9.86408251953125,0.12848726370334623,-0.10112605890859849,0.07014922089995816
1638746582811104500,9.8741044921875,0.12113806998431682,-0.08889833590039052,0.11056255289623514
1638746582821125600,9.884125732421875,0.09776128605008125,-0.06011136348568834,0.1499699592529796
1638746582831147800,9.894147705078124,0.09068506405353545,-0.004973267501080408,0.16115226486148312
1638746582841168600,9.904168701171875,0.10246668726205825,0.03375531714549288,0.1557933316442184
1638746582851190500,9.9141904296875,0.11021101777851582,0.05218869899394921,0.12341467314679175
1638746582861211600,9.924211669921876,0.11692425168156623,0.06166345176589675,0.08694443448679522
1638746582871233800,9.93423388671875,0.09491875610053539,0.04954033077647909,0.05341021274607628
1638746582881255700,9.944255615234376,0.1065910737156868,0.022421574701787902,0.02150110798915848
1638746582891276500,9.954276611328124,0.10076631308495998,-0.00339080234891735,0.004570102660823613
1638746582901298400,9.96429833984375,0.09884791224300861,-0.03933163770679384,0.020108630717452614
1638746582911319600,9.974319580078125,0.08945172286629677,-0.07446960484972223,0.1031491713671945
1638746582921341700,9.984341796875,0.11084463950693607,-0.13687117989812977,0.24312652798658235
1638746582931362600,9.994362548828125,0.23037059811949728,-0.18209776652818543,0.2583986601919867
1638746582941384400,10.004384521484376,0.3810059807449579,-0.1430040200973395,0.19217163597075268
1638746582951405600,10.014405517578124,0.3447264606177807,0.005937628154363482,0.036129224936291574
1638746582961427700,10.024427734375,0.11196399892568587,0.11342935877051204,-0.15390322531498968
1638746582971449600,10.03444970703125,-0.097440968054533,0.19414448867999015,-0.2421819588791579
1638746582981470500,10.044470458984375,-0.15164660549461842,0.22530509489085523,-0.25899028767589477
1638746582991492600,10.05449267578125,-0.05961538752913475,0.16189831572212277,-0.2517956817303784
1638746583001513700,10.064513671875,0.07345452778935432,0.12101074467706494,-0.23357540377648545
1638746583011535600,10.07453564453125,0.13979074800610541,0.09771834195749833,-0.1973733327996917
1638746583021556700,10.084556640625,0.09179799373149872,0.03639331009942107,-0.14673890490988267
1638746583031578600,10.09457861328125,0.03826163385510444,-0.041680977311916646,-0.08823599040098488
1638746583041600800,10.104600830078125,0.019863222855329512,-0.06898706351909786,-0.014920432690903544
1638746583051621600,10.11462158203125,0.013570844712853431,-0.06189169843066483,0.03346080944463611
1638746583061643500,10.1246435546875,0.0361591086179018,-0.05285628692405298,0.06167034729756415
1638746583071664600,10.13466455078125,0.04438274708390236,-0.0233597780005075,0.06257960762958974
1638746583081686500,10.1446865234375,0.08058394127786159,-0.006072369583090767,0.06553803731007501
1638746583091707600,10.154707763671874,0.13235621409118176,0.006798628897871821,0.0625820918476209
1638746583101729500,10.1647294921875,0.1452250480145216,0.0144705334989354,0.06164196145329624
1638746583111750700,10.174750732421876,0.14163725265562532,0.01751528062284924,0.03855013194028288
1638746583121772500,10.1847724609375,0.12414309701919556,0.013768888035602866,0.014390837592538445
1638746583131793400,10.19479345703125,0.11907587675750254,0.005119507571356371,0.015289284269604832
1638746583141815600,10.204815673828126,0.11879764433801174,-0.010466622486663982,0.020945081541594118
1638746583151837700,10.214837646484375,0.12495032174885272,-0.017429629899701104,0.02122196225421503
1638746583161858600,10.224858642578125,0.12601590515375136,-0.037440755059430376,0.013536102193035185
1638746583171880400,10.23488037109375,0.14248714748322963,-0.052507619616854934,0.004364040428400039
1638746583181901600,10.244901611328125,0.12364274628162383,-0.05817558225067332,0.011900025423802434
1638746583191923700,10.254923828125,0.11406593964099883,-0.06795784833552315,0.01767018805677071
1638746583201944600,10.264944580078126,0.10463175634145735,-0.05089909757482819,0.02907676740782335
1638746583211966500,10.274966552734375,0.09833528654575348,-0.033090551360137756,0.03737652158364654
1638746583221988600,10.284988525390625,0.09069032475054263,-0.015596596653107553,0.03457571188397705
1638746583232009700,10.295009765625,0.09037234484255313,0.0015852598974481224,0.05646848607184365
1638746583242031600,10.305031494140625,0.08855798889696598,0.012479999002534896,0.03669862232208252
1638746583252052500,10.315052490234375,0.09856149651706218,0.021536635960265994,0.013975808784551918
1638746583262074600,10.32507470703125,0.10034019662737846,0.031463333750795575,0.0022031360674649478
1638746583272095700,10.335095703125,0.10601239704489707,0.04280832824087701,0.0037315146785229444
1638746583282117600,10.34511767578125,0.0902910962998867,0.039902167603746055,-0.01362443806361407
1638746583292138500,10.355138427734374,0.08579670749008655,0.0488283374490682,-0.02283442068584263
1638746583302160400,10.365160400390625,0.07622399250268935,0.04555755388378165,-0.02529869190752506
1638746583312182800,10.375182861328126,0.08536649937927722,0.0249713687824551,-0.02460144862467423
1638746583322203600,10.38520361328125,0.08208557801246642,0.020114941727230325,-0.03084198698205873
1638746583332225500,10.3952255859375,0.09914718745052814,0.006953947323746979,-0.04553445613598451
1638746583342246700,10.40524658203125,0.09241992502212523,-0.005960744168469682,-0.02628472553649917
1638746583352268800,10.415268798828125,0.09108253893852233,-0.014480086778569965,-0.01735233601294458
1638746583362289700,10.42528955078125,0.08839841442108154,-0.001657795410696417,-0.008155450334306806
1638746583372311600,10.4353115234375,0.08436229077279567,-0.012753993638325483,0.005340045853704214
1638746583382332700,10.445332763671875,0.08601064250171184,-0.022039480049023404,0.008642868525069207
1638746583392354600,10.4553544921875,0.09528817393481731,-0.011796017060056329,0.0022145159780047833
1638746583402375700,10.465375732421874,0.10860884327888488,-0.008027914964500815,-0.007915230103954672
1638746583412397600,10.4753974609375,0.09124912767708301,-0.0038445831315591927,-0.01384235513061285
1638746583422419500,10.48541943359375,0.08796177656948566,0.0028463658744469285,0.0010021993124857543
1638746583432440600,10.495440673828124,0.10427110633552074,0.006504833583068102,0.045238541929330675
1638746583442462700,10.505462646484375,0.11548691235482691,0.009132022015191614,0.06707260819990188
1638746583452483600,10.515483642578126,0.14300328031182288,0.026770454093674196,0.11499388640718534
1638746583462505500,10.52550537109375,0.1712491315871477,0.0338163905498106,0.15680608888333664
1638746583472526600,10.535526611328125,0.1744821221590042,-0.007745042902510613,0.1653631057558581
1638746583482548700,10.545548828125,0.1639297484844923,-0.07609617400509305,0.15422591793071477
1638746583492570600,10.555570556640625,0.1226946517765522,-0.12192855364172718,0.11237099055768922
1638746583502591500,10.565591552734375,0.08895429473817348,-0.11128714997689239,0.054269971380569035
1638746583512613600,10.575613525390626,0.05178863942623138,-0.09528149759885854,0.024011410309653727
1638746583522634500,10.585634521484375,0.052631519991159434,-0.12627718643844127,0.007460161546524614
1638746583532656600,10.59565673828125,0.1390723706036806,-0.15357868780205025,0.013935531573090701
1638746583542677800,10.605677734375,0.2331324640482664,-0.16084646858163176,0.007669676111359149
1638746583552699600,10.61569970703125,0.2728589097589254,-0.132518839040678,-0.048042201173212375
1638746583562720500,10.625720458984375,0.23582243378460405,-0.0385379757116083,-0.07215308980196714
1638746583572742700,10.63574267578125,0.1483528246462345,0.015992372771352528,-0.08321679226579144
1638746583582764500,10.6457646484375,0.07238543725311755,0.06244524979335256,-0.08167281422680243
1638746583592785700,10.65578564453125,0.06644084963500499,0.09735065942257642,-0.10365701129147782
1638746583602807600,10.6658076171875,0.07997077781558036,0.10668993098028004,-0.04154480197792872
1638746583612828400,10.675828369140625,0.07254968790411949,0.0650339785117656,0.02057049434185028
1638746583622850600,10.6858505859375,0.0600181231111288,0.05597628210810944,-0.022985136001836506
1638746583632871700,10.69587158203125,0.03909340850412845,0.08059900184967554,-0.054507725659199056
1638746583642893600,10.7058935546875,0.030312720677256582,0.11964814195381476,-0.05988249576641246
1638746583652914400,10.71591455078125,0.023350480449199674,0.11672003434635699,-0.09771985806114972
1638746583662936600,10.7259365234375,0.017157471027970314,0.14349886354273184,-0.12726913835154846
1638746583672958700,10.735958740234375,0.015022212564945221,0.1956737075412646,-0.1197887560009025
1638746583682979600,10.7459794921875,0.010367080235481262,0.21878595878779886,-0.09287824498256668
1638746583693001500,10.75600146484375,0.05675415287911892,0.23520952605064957,-0.1170779809385538
1638746583703022600,10.766022705078125,0.07112579258084296,0.2913494925541803,-0.13801014819964766
1638746583713044700,10.776044677734374,0.024762100812792776,0.31680896451398727,-0.1461125166398473
1638746583723065600,10.786065673828125,-0.01992518217563629,0.27306276176795363,-0.13366075735110788
1638746583733087500,10.79608740234375,0.008563245683908462,0.16990732505675404,-0.06978471670281142
1638746583743108900,10.80610888671875,0.08806523694396018,0.02626729947766289,-0.03576599938077852
1638746583753131300,10.81613134765625,0.1440788005888462,-0.08818935651397332,-0.024427736025582996
1638746583763153200,10.826153076171876,0.13815408671498297,-0.13563482476989738,0.06778568837270141
1638746583773174000,10.836174072265624,0.12905658802390096,-0.09708188895117491,0.09221148816952482
1638746583783196200,10.846196044921875,0.10708148758113384,-0.047465926522063086,0.09879532353924587
1638746583793217300,10.85621728515625,0.05981120236217975,-0.041974672162020575,0.13629477738281712
1638746583803239200,10.8662392578125,0.055308630245923994,-0.054564543013507494,0.11394687983859329
1638746583813260000,10.876260009765625,0.10586100587546825,-0.031311312393704424,-0.009686349696014077
1638746583823282000,10.886281982421876,0.13112404194772243,0.033738731336873024,-0.12269414031989871
1638746583833303300,10.89630322265625,0.09445815285146236,0.019686167521681636,-0.19789193158000706
1638746583843325200,10.9063251953125,0.047072716820240015,-0.050276042906194925,-0.23704160031601784
1638746583853347000,10.91634716796875,0.03577332417070865,-0.1289811847001314,-0.13166918167509137
1638746583863368000,10.926367919921875,0.05723989056944847,-0.2405259353004396,-0.07077480545239523
1638746583873390000,10.93639013671875,0.14305822536945342,-0.26969956894516944,-0.01482447976944968
1638746583883411200,10.9464111328125,0.20836510253846643,-0.20972820758521554,0.08307796831699088
1638746583893433000,10.95643310546875,0.18084931910336016,-0.14880659629572182,0.1227412673972547
1638746583903454000,10.966453857421875,0.1627221262603998,-0.11330096488418057,0.14997105523152277
1638746583913476000,10.97647607421875,0.16776479660272597,-0.10008940020408481,0.18587134851645676
1638746583923497200,10.986497314453125,0.21257190657854078,-0.11539594613574444,0.24522571048922837
1638746583933519000,10.99651904296875,0.21905834598839283,-0.11811780884768813,0.32416261521242556
1638746583943541000,11.006541015625,0.1762853721886873,-0.09982269382560625,0.35451705613955853
1638746583953562000,11.01656201171875,0.13844342505037785,-0.0388871453423053,0.3545126722253859
1638746583963584300,11.026584228515626,0.10031740027368068,-0.015186499748565256,0.3346232920154929
1638746583973605000,11.036605224609374,0.09496201072037219,0.009472378151770681,0.24888949369378385
1638746583983627000,11.046626953125,0.07676467525064945,0.0582584747611545,0.17165303621292113
1638746583993648000,11.056648193359376,0.046287703922390934,0.0445707074040547,0.10490076427487656
1638746584003670300,11.066670166015625,0.07238426820933819,0.010586458607204257,-0.010585380894970148
1638746584013691100,11.076691162109375,0.05948562366962432,0.029163349712733176,-0.12068552217753603
1638746584023713000,11.086713134765626,-0.01620996104478836,0.07425349614731967,-0.20598779721418395
1638746584033734100,11.096734130859375,-0.056692778080701826,0.0767934264210984,-0.22423434212049467
1638746584043756000,11.106756103515625,-0.03760521577298641,-0.016437029532622546,-0.1911508598219603
1638746584053778200,11.116778076171874,0.04072247101068496,-0.10834190857154316,-0.12412592668868601
1638746584063799000,11.126799072265625,0.12696283061504363,-0.09105349550712853,-0.10019907112363725
1638746584073821200,11.1368212890625,0.13791443274021148,-0.08807188588045536,-0.10717468228992075
1638746584083842000,11.146842041015624,0.11351122836768626,-0.0807190388996154,-0.1008792354075238
1638746584093864200,11.1568642578125,0.09745148944854735,-0.031265765352081504,-0.17563529251581056
1638746584103885000,11.166885009765625,0.0728495476335287,0.022814574341056867,-0.3627718203961849
1638746584113907200,11.1769072265625,-0.01859890200793743,-0.0056717072271741924,-0.59878802318722
1638746584123929000,11.18692919921875,-0.09529401915371417,0.013453757671825587,-0.7123861991859972
1638746584133950000,11.196949951171876,-0.11098434023857116,0.13478976138103752,-0.6408795905940234
1638746584143972000,11.20697216796875,-0.029528876823186872,0.2515786962451413,-0.40991701793074603
1638746584153993200,11.2169931640625,0.0961859995573759,0.2615306198084727,-0.18838804404512047
1638746584164015000,11.22701513671875,0.16996727508306503,0.2159980816349387,-0.01224922245396301
1638746584174036000,11.237035888671874,0.1565051514416933,0.15866154402429236,0.1525397549420595
1638746584184058000,11.24705810546875,0.09077215781509876,0.07981798014035447,0.2923774108298123
1638746584194079200,11.257079345703126,0.05308101732432842,0.005152606123359873,0.3709328419547528
1638746584204101000,11.26710107421875,0.0720475836008787,-0.04087230041068978,0.408400402822718
1638746584214122000,11.2771220703125,0.10210136108100414,-0.07406232095677405,0.37124409986101087
1638746584224144100,11.28714404296875,0.12293489027321337,-0.09729372333725914,0.29624026027042416
1638746584234166300,11.297166259765625,0.1634282287031412,-0.09116625343291089,0.20808586547197772
1638746584244187100,11.307187255859375,0.1922901660501957,-0.07216621414502151,0.12624184113042428
1638746584254209000,11.317208984375,0.18705986418128012,-0.03496983490125276,0.10617416347786783
1638746584264230000,11.32722998046875,0.180795543089509,0.060128926541842515,0.1223446875614114
1638746584274252300,11.337252197265625,0.1680775158137083,0.14665540961120277,0.16050890719033778
1638746584284273200,11.347273193359374,0.15981880603432655,0.15258820632682182,0.20400840516630558
1638746584294295000,11.357294921875,0.171414551281929,0.1036882284136489,0.22924312845952807
1638746584304317000,11.36731689453125,0.21633388946056364,0.06335703087602741,0.2236210873266682
1638746584314338300,11.37733837890625,0.20749474944472313,0.017252291438262908,0.18602230129446834
1638746584324360200,11.387360107421875,0.1809697306126356,-0.03748493212787434,0.12347100644391029
1638746584334381000,11.397381103515626,0.12705810768306255,-0.09546756735602394,0.037481096202973276
1638746584344403000,11.40740283203125,0.0876852977156639,-0.12137950492422096,-0.027689751762524247
1638746584354424000,11.417424072265625,0.07766893061399459,-0.12158949441309086,-0.07912906629443169
1638746584364446200,11.4274462890625,0.07679565491080284,-0.07474195551769808,-0.11685251988591626
1638746584374467000,11.437467041015625,0.08280921611189841,-0.03190049219219945,-0.14115500383032484
1638746584384489000,11.447489013671875,0.08283435055315494,0.011740295684291049,-0.15514938945118337
1638746584394510000,11.457510009765626,0.10170680880546569,0.03258338728928938,-0.1730098941819742
1638746584404532200,11.4675322265625,0.08210486723482609,0.036570612028241155,-0.16339403417259454
1638746584414554000,11.47755419921875,0.06158581081926822,0.03218225914249197,-0.15606301543107257
1638746584424575000,11.487574951171876,0.036872225323319435,0.0031013361493591215,-0.14345761821689082
1638746584434597000,11.49759716796875,0.03385083167552948,-0.04627903655874543,-0.09863503667730837
1638746584444618000,11.507617919921875,0.027989830687642096,-0.08324463925394229,-0.05828636741507798
1638746584454640000,11.51764013671875,0.051021162185072896,-0.1184915101314429,-0.02241409464823082
1638746584464661200,11.5276611328125,0.07122106964886188,-0.12564098916044458,0.010788977175671607
1638746584474683100,11.53768310546875,0.08064999225139617,-0.11325771026434377,0.021978278780542312
1638746584484704000,11.5477041015625,0.07362754626870155,-0.09570291961501352,0.03860542405778542
1638746584494726100,11.55772607421875,0.07932137399613856,-0.043318734581582245,0.05521322531374171
1638746584504748000,11.567748046875,0.0930927097171545,-0.00270059159505181,0.05483264676462859
1638746584514769200,11.57776904296875,0.10163491261303424,0.024377202281588687,0.05914850066974759
1638746584524791000,11.587791015625,0.13919745828807353,0.030927528107352553,0.06486011978220194
1638746584534812200,11.597812255859376,0.14907470917999743,0.037510422762157394,0.04811497414847836
1638746584544834000,11.607833984375,0.135308049634099,0.028811449268832803,0.06022305283239111
1638746584554855200,11.617855224609375,0.12513152353465556,0.005263309089373797,0.04045971015496179
1638746584564877000,11.627876953125,0.11361235065460204,-0.017625846591545268,0.017322178336698562
1638746584574898000,11.63789794921875,0.09820727625191211,-0.03688290198096074,0.011195457351021468
1638746584584920000,11.647920166015625,0.08864508265852927,-0.022676389713073147,-0.015055932171456515
1638746584594942200,11.657942138671874,0.0980944635272026,-0.01608537568389438,-0.012450005723070352
1638746584604963000,11.667963134765625,0.10021393989920616,0.01628310847938992,-0.028837204764597116
1638746584614985000,11.67798486328125,0.09559270983934402,0.06083670948501676,-0.024964838576968757
1638746584625006000,11.688006103515624,0.11356149725019932,0.06929885114831849,-0.00777587643219158
1638746584635028200,11.6980283203125,0.12194354114830493,0.06470406157081016,-0.0019129209492355585
1638746584645049000,11.708049072265625,0.11311083087325095,0.06817441369565204,0.00012154402043670416
1638746584655071000,11.718071044921874,0.10247428604662417,0.06436365063530393,-0.002480802231375128
1638746584665092000,11.728092041015625,0.0949789618551731,0.05142617192254401,0.0076197542887181035
1638746584675114200,11.7381142578125,0.09406360057592392,0.024833997005224227,0.004125719894189387
1638746584685136100,11.74813623046875,0.09419687156677245,0.0022271471307147295,0.003785802149027586
1638746584695157000,11.758156982421875,0.10272036976218223,-0.019885242890892548,0.013711203031614423
1638746584705179100,11.76817919921875,0.10361176564395427,-0.03380043492885306,0.021149974730238316
1638746584715200300,11.7782001953125,0.11886603339910506,-0.030420327503886072,0.006927442909311503
1638746584725222100,11.78822216796875,0.11511807904243468,-0.034128123380104076,-0.00792189730675891
1638746584735243000,11.798242919921876,0.10165011018216609,-0.042895906059630215,0.008273067098297178
1638746584745265200,11.80826513671875,0.08862988508939743,-0.038787055101851,0.020557653126586226
1638746584755286300,11.818286376953125,0.08263444406688213,-0.04166415404127911,0.026244868450146168
1638746584765308200,11.82830810546875,0.09400047221183776,-0.04098572505675256,0.04220346681606024
1638746584775330000,11.838330078125,0.09115092799961566,-0.02331971998475492,0.031408863617200404
1638746584785351200,11.84835107421875,0.0942903950691223,-0.006480868185590952,0.027750998696777968
1638746584795373300,11.858373291015624,0.0938332989513874,0.0130877830368001,0.022356464443169532
1638746584805394200,11.868394287109375,0.0852846663147211,0.02699642660296522,0.015240056566707788
1638746584815416000,11.878416015625,0.08945172286629677,0.01781048244345002,-0.0005887048744596541
1638746584825437200,11.888437255859374,0.09720891286432742,-0.007169142710696906,-0.049116716803237793
1638746584835459300,11.898459228515625,0.11680617825984954,-0.0032524989899247883,-0.09244630157239735
1638746584845480200,11.908480224609375,0.1039502038180828,0.010579106417810544,-0.11038635607911274
1638746584855502000,11.918502197265624,0.07417816588878631,-0.00693208255181089,-0.06763756687259301
1638746584865524200,11.928524169921875,0.09916238501965999,-0.06272360094385221,-0.03316895035859197
1638746584875545300,11.93854541015625,0.13432137668430805,-0.08103751199794933,0.0008803264984861015
1638746584885567200,11.948567138671875,0.1422486625522375,-0.07780990085410885,0.02086889276653528
1638746584895588000,11.958588134765625,0.12412965301573275,-0.04810156667763367,0.05143494888404384
1638746584905610000,11.96860986328125,0.10658815110623836,-0.002018609813414514,0.07452697932645679
1638746584915631400,11.97863134765625,0.08335106790363789,0.020835008763242513,0.09964476170912384
1638746584925653200,11.9886533203125,0.0777642076820135,0.0376645447447896,0.1023742414719425
1638746584935674000,11.998674072265626,0.10374445211291312,0.05315812854799442,0.09346764397677033
1638746584945696000,12.008696044921875,0.1210474690914154,0.06097745139626786,0.07700915153101086
1638746584955718400,12.018718505859376,0.11306699173152446,0.04343140117581933,0.019020780681818724
1638746584965739300,12.0287392578125,0.10613514664173125,0.01798951967163011,-0.024145338887628168
1638746584975761200,12.03876123046875,0.09502689265012741,-0.012785493888286873,-0.038634175228234376
1638746584985782300,12.0487822265625,0.08587386437952518,-0.04912374019906856,-0.0448849427186884
1638746584995804200,12.05880419921875,0.10112404048144817,-0.07794825901202856,-0.03541002554995939
1638746585005825300,12.0688251953125,0.12147358554899691,-0.061226731715910136,-0.007480418883264064
1638746585015847200,12.07884716796875,0.11143383757174015,-0.04286956604197621,0.029189196540042758
1638746585025868300,12.088868408203124,0.12412439231872557,-0.012611352030932903,0.03667803619178012
1638746585035890200,12.09889013671875,0.12154197461009025,0.022988880595192312,0.07224979164209216
1638746585045912300,12.108912353515626,0.08108078488409519,0.006606339462473988,0.10608801956437527
1638746585055933200,12.11893310546875,0.056606853362917896,-0.011439961030846461,0.07609875868782401
1638746585065955000,12.128955078125,0.09663257428109645,0.002691020049108192,0.03920444939685985
1638746585075976200,12.13897607421875,0.09492635488510132,0.029626364114601164,-0.00873496725531295
1638746585085998300,12.148998291015625,0.0586719691991806,0.036891943803941826,-0.049392373673152176
1638746585096019200,12.159019287109375,0.04576981752812862,0.0543986757941544,-0.10634997670250013
1638746585106041000,12.169041015625,0.06671148326992989,0.06478041474265046,-0.12763636422874405
