time,seconds_elapsed,z,y,x
1638746572944883700,0.0078837890625,-1.01068115234375,-0.0159149169921875,-0.0154876708984375
1638746572954904600,0.017904541015625,-0.9946746826171875,0.0001678466796875,-0.0127410888671875
1638746572964926500,0.027926513671875,-0.983367919921875,0.0280609130859375,-0.0137939453125
1638746572974947300,0.037947265625,-0.980224609375,-0.00225830078125,-0.0216217041015625
1638746572984969700,0.0479697265625,-0.9855194091796875,-0.007568359375,-0.0129241943359375
1638746572994990600,0.057990478515625,-0.98699951171875,0.0048828125,-0.01690673828125
1638746573005012500,0.068012451171875,-0.988372802734375,0.0037841796875,-0.013824462890625
1638746573015033600,0.07803369140625,-0.9900054931640625,0.0001068115234375,-0.0150604248046875
1638746573025055700,0.0880556640625,-0.9914093017578125,-0.0050506591796875,-0.0133819580078125
1638746573035077600,0.09807763671875,-0.9883270263671875,-0.0008697509765625,-0.01727294921875
1638746573045098500,0.108098388671875,-0.9871978759765625,-0.0027008056640625,-0.014923095703125
1638746573055120400,0.118120361328125,-0.9886474609375,-0.003997802734375,-0.02294921875
1638746573065141800,0.128141845703125,-0.9877471923828125,0.0047454833984375,-0.0236968994140625
1638746573075163600,0.13816357421875,-0.988006591796875,0.001312255859375,-0.0276947021484375
1638746573085184500,0.1481845703125,-0.983978271484375,0.01361083984375,-0.0504913330078125
1638746573095206400,0.158206298828125,-0.99078369140625,0.0233154296875,-0.04498291015625
1638746573105228500,0.168228515625,-0.9983367919921875,0.01263427734375,-0.0249481201171875
1638746573115249700,0.178249755859375,-0.9853973388671875,0.0089263916015625,-0.0307159423828125
1638746573125271600,0.188271484375,-0.9864959716796875,0.01361083984375,-0.0435028076171875
1638746573135292400,0.19829248046875,-0.998504638671875,0.0138702392578125,-0.0468902587890625
1638746573145314600,0.208314453125,-0.9981842041015625,0.014801025390625,-0.04473876953125
1638746573155335700,0.218335693359375,-0.992889404296875,0.01690673828125,-0.0364990234375
1638746573165357600,0.228357666015625,-0.9874420166015625,0.0114288330078125,-0.0296173095703125
1638746573175378700,0.238378662109375,-0.995086669921875,0.0135955810546875,-0.03045654296875
1638746573185400600,0.248400634765625,-0.9973907470703125,0.0041351318359375,-0.0275726318359375
1638746573195422700,0.258422607421875,-0.98773193359375,0.0006866455078125,-0.027557373046875
1638746573205443600,0.268443603515625,-0.989227294921875,0.01031494140625,-0.06842041015625
1638746573215465500,0.278465576171875,-1.0228271484375,0.007293701171875,-0.048858642578125
1638746573225486600,0.288486572265625,-1.0447540283203125,0.0028533935546875,-0.062957763671875
1638746573235508500,0.298508544921875,-1.0291900634765625,0.0089874267578125,-0.0698089599609375
1638746573245529600,0.308529541015625,-0.9729156494140625,0.062408447265625,-0.072174072265625
1638746573255551500,0.318551513671875,-0.92529296875,0.09991455078125,-0.0475311279296875
1638746573265572600,0.328572509765625,-0.9181365966796875,0.0999908447265625,-0.0098114013671875
1638746573275594500,0.338594482421875,-0.95391845703125,0.0076751708984375,0.0419769287109375
1638746573285616600,0.34861669921875,-0.9881439208984375,-0.0906829833984375,-0.0146636962890625
1638746573295637500,0.358637451171875,-1.0056610107421875,-0.1220855712890625,-0.0305023193359375
1638746573305659600,0.36865966796875,-1.0052337646484375,-0.09478759765625,0.02569580078125
1638746573315680500,0.378680419921875,-0.984130859375,-0.0300750732421875,0.0483245849609375
1638746573325702700,0.38870263671875,-0.9710235595703125,0.0172119140625,0.0400848388671875
1638746573335723500,0.3987236328125,-0.98370361328125,0.028564453125,0.03314208984375
1638746573345745700,0.40874560546875,-1.003509521484375,0.0157928466796875,0.0363006591796875
1638746573355767600,0.418767578125,-1.0159759521484375,0.007110595703125,-0.0423126220703125
1638746573365788400,0.428788330078125,-1.020782470703125,0.0128936767578125,-0.035858154296875
1638746573375810600,0.438810546875,-1.01361083984375,0.0223236083984375,-0.0238189697265625
1638746573385831700,0.448831787109375,-1.0072479248046875,0.0200958251953125,-0.0230255126953125
1638746573395853600,0.458853515625,-0.996368408203125,0.0360107421875,-0.0609893798828125
1638746573405874400,0.46887451171875,-0.9727783203125,0.0686798095703125,-0.13018798828125
1638746573415896600,0.478896484375,-0.96331787109375,0.068115234375,-0.13861083984375
1638746573425917700,0.488917724609375,-0.9822235107421875,0.0569915771484375,-0.141204833984375
1638746573435939600,0.498939697265625,-0.9984588623046875,0.0494537353515625,-0.15277099609375
1638746573445961500,0.50896142578125,-0.9959869384765625,0.0379638671875,-0.1815338134765625
1638746573455982300,0.518982421875,-0.9925994873046875,0.0186767578125,-0.1922607421875
1638746573466004700,0.529004638671875,-0.9925537109375,0.0025787353515625,-0.1768341064453125
1638746573476025600,0.539025634765625,-0.9925384521484375,-0.0240631103515625,-0.1382293701171875
1638746573486047500,0.549047607421875,-0.992462158203125,-0.049163818359375,-0.050384521484375
1638746573496068400,0.559068359375,-0.9790191650390625,-0.05474853515625,0.0691680908203125
1638746573506090800,0.5690908203125,-0.9499969482421875,-0.0313262939453125,0.1249237060546875
1638746573516111600,0.579111572265625,-0.9484710693359375,-0.0042572021484375,0.1501617431640625
1638746573526133500,0.589133544921875,-0.979278564453125,0.018951416015625,0.184112548828125
1638746573536155400,0.5991552734375,-1.0052490234375,0.0306549072265625,0.204437255859375
1638746573546176800,0.6091767578125,-1.0088653564453125,0.0139923095703125,0.2117462158203125
1638746573556198700,0.61919873046875,-0.9988555908203125,-0.009368896484375,0.23175048828125
1638746573566219500,0.629219482421875,-0.9737701416015625,-0.0074615478515625,0.161956787109375
1638746573576241400,0.639241455078125,-0.950347900390625,0.00048828125,-0.04376220703125
1638746573586262500,0.649262451171875,-0.96075439453125,0.00946044921875,0.0112762451171875
1638746573596284700,0.65928466796875,-0.968048095703125,0.0147705078125,0.0093231201171875
1638746573606305500,0.669305419921875,-0.996429443359375,0.009857177734375,-0.0054779052734375
1638746573616327400,0.679327392578125,-1.029388427734375,0.010406494140625,-0.0188446044921875
1638746573626349600,0.689349609375,-1.0308685302734375,-0.0070343017578125,-0.0360260009765625
1638746573636370700,0.69937060546875,-1.023834228515625,-0.0308074951171875,-0.055633544921875
1638746573646392600,0.709392578125,-1.01849365234375,-0.01019287109375,-0.0572509765625
1638746573656413400,0.719413330078125,-1.018585205078125,0.0019378662109375,-0.044158935546875
1638746573666435600,0.729435546875,-1.000823974609375,0.006866455078125,-0.0469818115234375
1638746573676456400,0.73945654296875,-0.980926513671875,-0.0023651123046875,-0.02752685546875
1638746573686478600,0.749478515625,-0.95843505859375,0.0081024169921875,-0.0021820068359375
1638746573696499700,0.759499755859375,-0.9613037109375,0.0104217529296875,-0.008636474609375
1638746573706521600,0.769521484375,-0.982574462890625,-0.003326416015625,-0.0171356201171875
1638746573716543700,0.779543701171875,-0.989532470703125,0.0084228515625,-0.03448486328125
1638746573726564600,0.789564697265625,-0.989471435546875,0.0023956298828125,-0.0056915283203125
1638746573736586000,0.7995859375,-0.9992523193359375,-0.009368896484375,-0.0069427490234375
1638746573746607000,0.809607177734375,-0.9990692138671875,-0.0067291259765625,-0.01165771484375
1638746573756629000,0.81962890625,-0.993255615234375,-0.004791259765625,-0.0219879150390625
1638746573766649900,0.82964990234375,-0.9832305908203125,-0.0068359375,-0.021331787109375
1638746573776672000,0.839672119140625,-0.9734344482421875,-0.006988525390625,-0.014678955078125
1638746573786694100,0.849694091796875,-0.973419189453125,-0.0091094970703125,-0.0157318115234375
1638746573796715000,0.859715087890625,-0.9803619384765625,-0.0074005126953125,-0.0178985595703125
1638746573806737000,0.86973681640625,-0.9895172119140625,-0.006744384765625,-0.019622802734375
1638746573816758300,0.87975830078125,-0.9918060302734375,-0.00439453125,-0.0237884521484375
1638746573826780200,0.8897802734375,-0.9897918701171875,0.001617431640625,-0.0252838134765625
1638746573836801000,0.899801025390625,-0.9897918701171875,0.001861572265625,-0.0262298583984375
1638746573846823000,0.909822998046875,-0.9889678955078125,0.00274658203125,-0.031585693359375
1638746573856844000,0.919843994140625,-0.989044189453125,0.00262451171875,-0.0370025634765625
1638746573866866200,0.9298662109375,-0.9924774169921875,0.0032958984375,-0.0402679443359375
1638746573876888000,0.93988818359375,-0.9940948486328125,0.00567626953125,-0.0457611083984375
1638746573886909000,0.949908935546875,-0.9933929443359375,0.0069427490234375,-0.047821044921875
1638746573896931000,0.95993115234375,-0.993499755859375,0.005645751953125,-0.0462188720703125
1638746573906952200,0.9699521484375,-0.9921875,0.0023193359375,-0.0461273193359375
1638746573916974000,0.97997412109375,-0.9891815185546875,0.001312255859375,-0.0444793701171875
1638746573926995000,0.989994873046875,-0.990264892578125,0.0042266845703125,-0.04345703125
1638746573937017000,1.00001708984375,-0.9910125732421875,0.007568359375,-0.0460968017578125
1638746573947038200,1.0100380859375,-0.9908905029296875,0.0096588134765625,-0.04852294921875
1638746573957060000,1.02006005859375,-0.9916534423828125,0.0105743408203125,-0.0469207763671875
1638746573967082000,1.03008203125,-0.9907073974609375,0.0108642578125,-0.0417327880859375
1638746573977103000,1.04010302734375,-0.991302490234375,0.00946044921875,-0.0349578857421875
1638746573987125200,1.050125244140625,-0.9910736083984375,0.005889892578125,-0.027557373046875
1638746573997146000,1.06014599609375,-0.990020751953125,0.0014190673828125,-0.0247344970703125
1638746574007168000,1.07016796875,-0.98797607421875,0.0015869140625,-0.023651123046875
1638746574017189000,1.080189208984375,-0.9872283935546875,-0.0003662109375,-0.0212554931640625
1638746574027211000,1.0902109375,-0.987518310546875,-0.0011749267578125,-0.02166748046875
1638746574037233200,1.100233154296875,-0.98760986328125,-0.0019073486328125,-0.025177001953125
1638746574047254000,1.11025390625,-0.988555908203125,0.0009307861328125,-0.029327392578125
1638746574057276000,1.12027587890625,-0.9907379150390625,0.0025634765625,-0.0331573486328125
1638746574067297000,1.130297119140625,-0.99176025390625,0.00201416015625,-0.03350830078125
1638746574077319200,1.140319091796875,-0.98931884765625,0.000457763671875,-0.03302001953125
1638746574087340000,1.150340087890625,-0.9875335693359375,-0.000274658203125,-0.034942626953125
1638746574097362000,1.16036181640625,-0.9845733642578125,0.0037841796875,-0.0422515869140625
1638746574107383000,1.170383056640625,-0.985443115234375,0.0067138671875,-0.0442047119140625
1638746574117405200,1.1804052734375,-0.9909210205078125,0.0050048828125,-0.0408477783203125
1638746574127427000,1.190427001953125,-0.99444580078125,0.003082275390625,-0.0365447998046875
1638746574137448200,1.2004482421875,-0.9951934814453125,0.0020294189453125,-0.035980224609375
1638746574147470000,1.210469970703125,-0.991302490234375,0.0030059814453125,-0.0367584228515625
1638746574157491000,1.220490966796875,-0.991668701171875,0.0044097900390625,-0.03619384765625
1638746574167513000,1.23051318359375,-0.992156982421875,0.004608154296875,-0.0384674072265625
1638746574177534200,1.2405341796875,-0.9928131103515625,0.0049285888671875,-0.0400390625
1638746574187556000,1.25055615234375,-0.9931640625,0.0040283203125,-0.040069580078125
1638746574197577000,1.260576904296875,-0.992584228515625,0.0023345947265625,-0.0378570556640625
1638746574207599000,1.27059912109375,-0.992034912109375,0.0013427734375,-0.0336761474609375
1638746574217621000,1.28062109375,-0.9911956787109375,0.00115966796875,-0.032379150390625
1638746574227642000,1.29064208984375,-0.9908447265625,0.0007781982421875,-0.033111572265625
1638746574237664000,1.3006640625,-0.9903564453125,-0.000091552734375,-0.0313720703125
1638746574247684900,1.310684814453125,-0.9902801513671875,0.000335693359375,-0.0337371826171875
1638746574257707000,1.32070703125,-0.9894256591796875,-0.0004119873046875,-0.03692626953125
1638746574267728100,1.33072802734375,-0.9897613525390625,-0.0010223388671875,-0.0380706787109375
1638746574277750000,1.34075,-0.988922119140625,-0.003875732421875,-0.0417938232421875
1638746574287771000,1.35077099609375,-0.989349365234375,-0.0065765380859375,-0.0457763671875
1638746574297793000,1.36079296875,-0.991119384765625,-0.00726318359375,-0.0530853271484375
1638746574307815200,1.370815185546875,-0.9924163818359375,-0.0050048828125,-0.0580902099609375
1638746574317836000,1.3808359375,-0.9953765869140625,0.000274658203125,-0.0590057373046875
1638746574327858000,1.39085791015625,-0.99884033203125,0.0013885498046875,-0.0559844970703125
1638746574337879000,1.400879150390625,-0.9972381591796875,0.00201416015625,-0.0478668212890625
1638746574347901200,1.410901123046875,-0.992523193359375,0.0024871826171875,-0.039276123046875
1638746574357922000,1.420922119140625,-0.9869842529296875,-0.0012054443359375,-0.032135009765625
1638746574367944000,1.43094384765625,-0.982452392578125,-0.001251220703125,-0.02587890625
1638746574377965000,1.440965087890625,-0.9804534912109375,0.00323486328125,-0.016265869140625
1638746574387987200,1.4509873046875,-0.98297119140625,0.00311279296875,-0.006134033203125
1638746574398009000,1.461009033203125,-0.98504638671875,0.00054931640625,-0.0047760009765625
1638746574408030000,1.471030029296875,-0.981109619140625,-0.00103759765625,-0.0119781494140625
1638746574418051800,1.4810517578125,-0.978759765625,0.0027313232421875,-0.0054473876953125
1638746574428073200,1.4910732421875,-0.985015869140625,-0.012786865234375,0.0091705322265625
1638746574438095000,1.50109521484375,-0.9654998779296875,-0.0694427490234375,0.0223388671875
1638746574448116000,1.511115966796875,-0.9105224609375,-0.087158203125,0.024993896484375
1638746574458138000,1.52113818359375,-0.906494140625,-0.0529327392578125,0.0421295166015625
1638746574468160300,1.53116015625,-0.96435546875,-0.02642822265625,0.0554046630859375
1638746574478181000,1.54118115234375,-1.023895263671875,-0.0285797119140625,0.0023345947265625
1638746574488203000,1.551203125,-1.061492919921875,0.0000152587890625,-0.0709686279296875
1638746574498224000,1.56122412109375,-1.0505218505859375,0.093658447265625,-0.053314208984375
1638746574508246000,1.57124609375,-1.009063720703125,0.1575469970703125,-0.0200347900390625
1638746574518267100,1.58126708984375,-0.97943115234375,0.1216888427734375,-0.0587005615234375
1638746574528289000,1.5912890625,-0.9876251220703125,0.0233154296875,-0.1083831787109375
1638746574538310100,1.60131005859375,-0.997772216796875,-0.0214385986328125,-0.1380157470703125
1638746574548332000,1.61133203125,-1.00384521484375,-0.0235137939453125,-0.148193359375
1638746574558354200,1.621354248046875,-1.0154266357421875,-0.0175018310546875,-0.1236419677734375
1638746574568375000,1.631375,-1.027496337890625,-0.0077972412109375,-0.081939697265625
1638746574578397000,1.64139697265625,-1.029327392578125,-0.0006256103515625,-0.046356201171875
1638746574588418000,1.65141796875,-1.0134735107421875,0.0072021484375,-0.0233917236328125
1638746574598440200,1.661440185546875,-0.9872894287109375,0.015045166015625,-0.0056915283203125
1638746574608461000,1.6714609375,-0.9700164794921875,0.015411376953125,0.0056610107421875
1638746574618483000,1.68148291015625,-0.969757080078125,0.005218505859375,0.01031494140625
1638746574628504000,1.691504150390625,-0.9760284423828125,-0.0071258544921875,0.0181732177734375
1638746574638526000,1.70152587890625,-0.98583984375,-0.0173492431640625,0.021820068359375
1638746574648548000,1.711548095703125,-0.9903411865234375,-0.0243072509765625,0.0176239013671875
1638746574658569200,1.7215693359375,-0.985321044921875,-0.02935791015625,0.005645751953125
1638746574668591000,1.731591064453125,-0.97698974609375,-0.0305938720703125,-0.00726318359375
1638746574678612000,1.741612060546875,-0.970062255859375,-0.0265350341796875,-0.017364501953125
1638746574688634000,1.751634033203125,-0.969757080078125,-0.0178680419921875,-0.02423095703125
1638746574698655200,1.7616552734375,-0.97454833984375,-0.0105743408203125,-0.03106689453125
1638746574708677000,1.771677001953125,-0.9836273193359375,-0.0059356689453125,-0.0335235595703125
1638746574718699000,1.781698974609375,-0.990753173828125,-0.0015869140625,-0.0307464599609375
1638746574728720400,1.791720458984375,-0.992462158203125,0.0016632080078125,-0.029205322265625
1638746574738742300,1.8017421875,-0.9908447265625,0.003387451171875,-0.0291748046875
1638746574748763400,1.811763427734375,-0.9914093017578125,0.0027618408203125,-0.0300140380859375
1638746574758785500,1.82178564453125,-0.9912872314453125,-0.0001220703125,-0.0331573486328125
1638746574768806400,1.831806396484375,-0.990264892578125,-0.003448486328125,-0.033416748046875
1638746574778828300,1.841828369140625,-0.9901275634765625,-0.00738525390625,-0.0321502685546875
1638746574788849400,1.851849365234375,-0.990997314453125,-0.0088348388671875,-0.03057861328125
1638746574798871600,1.86187158203125,-0.990966796875,-0.0068206787109375,-0.0276641845703125
1638746574808893400,1.8718935546875,-0.9921875,-0.0022735595703125,-0.0234832763671875
1638746574818914300,1.881914306640625,-0.991485595703125,0.0017852783203125,-0.02142333984375
1638746574828936400,1.8919365234375,-0.991302490234375,0.003021240234375,-0.017822265625
1638746574838957600,1.90195751953125,-0.9913482666015625,0.0048828125,-0.0142364501953125
1638746574848979500,1.9119794921875,-0.992034912109375,0.003875732421875,-0.0147857666015625
1638746574859000300,1.922000244140625,-0.98968505859375,0.0009307861328125,-0.0162811279296875
1638746574869022500,1.9320224609375,-0.9884490966796875,-0.001678466796875,-0.0185394287109375
1638746574879043300,1.942043212890625,-0.9898834228515625,-0.003662109375,-0.0211181640625
1638746574889065500,1.9520654296875,-0.991607666015625,-0.0070037841796875,-0.026336669921875
1638746574899087400,1.96208740234375,-0.9924774169921875,-0.009735107421875,-0.0302276611328125
1638746574909108500,1.9721083984375,-0.98956298828125,-0.0111236572265625,-0.0327606201171875
1638746574919130400,1.98213037109375,-0.9870758056640625,-0.010223388671875,-0.03515625
1638746574929151500,1.9921513671875,-0.987823486328125,-0.0110321044921875,-0.03814697265625
1638746574939173400,2.00217333984375,-0.988861083984375,-0.0098419189453125,-0.0401611328125
1638746574949194500,2.012194580078125,-0.989715576171875,-0.0081024169921875,-0.039581298828125
1638746574959216400,2.02221630859375,-0.99066162109375,-0.0064849853515625,-0.038238525390625
1638746574969237200,2.0322373046875,-0.9897308349609375,-0.0060882568359375,-0.03594970703125
1638746574979259400,2.04225927734375,-0.9878997802734375,-0.004669189453125,-0.03289794921875
1638746574989281500,2.052281494140625,-0.9873199462890625,-0.0041961669921875,-0.03179931640625
1638746574999302400,2.062302490234375,-0.9886322021484375,-0.0011749267578125,-0.030975341796875
1638746575009324500,2.072324462890625,-0.9908599853515625,0.0016632080078125,-0.02899169921875
1638746575019345400,2.082345458984375,-0.991729736328125,0.003265380859375,-0.0254669189453125
1638746575029367600,2.092367431640625,-0.992706298828125,0.0047607421875,-0.0208587646484375
1638746575039388400,2.102388427734375,-0.99151611328125,0.003997802734375,-0.018096923828125
1638746575049410300,2.112410400390625,-0.9893951416015625,0.0011138916015625,-0.0165252685546875
1638746575059431700,2.122431640625,-0.9894561767578125,-0.000152587890625,-0.0150604248046875
1638746575069453600,2.13245361328125,-0.9875335693359375,-0.001434326171875,-0.0137939453125
1638746575079475500,2.142475341796875,-0.9852447509765625,-0.0026702880859375,-0.0125274658203125
1638746575089496300,2.152496337890625,-0.9815216064453125,-0.004180908203125,-0.0139617919921875
1638746575099518500,2.1625185546875,-0.983367919921875,-0.002960205078125,-0.015045166015625
1638746575109539600,2.17253955078125,-0.991241455078125,-0.00323486328125,-0.0157012939453125
1638746575119561500,2.1825615234375,-0.993927001953125,-0.0142669677734375,-0.01959228515625
1638746575129582300,2.192582275390625,-0.988922119140625,-0.0247650146484375,-0.025787353515625
1638746575139604200,2.202604248046875,-0.976226806640625,-0.0233917236328125,-0.03875732421875
1638746575149625600,2.21262548828125,-0.9690704345703125,-0.0175018310546875,-0.0506439208984375
1638746575159647500,2.2226474609375,-0.97503662109375,-0.010650634765625,-0.052734375
1638746575169669400,2.23266943359375,-0.9857330322265625,-0.003692626953125,-0.0454864501953125
1638746575179690200,2.242690185546875,-0.9941558837890625,0.004608154296875,-0.0333099365234375
1638746575189712600,2.252712646484375,-0.99664306640625,0.0095977783203125,-0.019195556640625
1638746575199733500,2.2627333984375,-0.99298095703125,0.015106201171875,-0.0128326416015625
1638746575209755400,2.27275537109375,-0.989044189453125,0.018035888671875,-0.0084686279296875
1638746575219776500,2.282776611328125,-0.98779296875,0.0178680419921875,-0.006011962890625
1638746575229798400,2.29279833984375,-0.9917144775390625,0.0206451416015625,-0.004547119140625
1638746575239820500,2.302820556640625,-0.9991455078125,0.019439697265625,-0.0047607421875
1638746575249841400,2.31284130859375,-1.010467529296875,0.008758544921875,-0.008453369140625
1638746575259863300,2.32286328125,-1.0155487060546875,-0.001983642578125,-0.01800537109375
1638746575269884400,2.332884521484375,-1.0098419189453125,0.0001068115234375,-0.0258941650390625
1638746575279906600,2.342906494140625,-0.999664306640625,0.0032196044921875,-0.0328216552734375
1638746575289927400,2.352927490234375,-0.991607666015625,0.004913330078125,-0.0379638671875
1638746575299949300,2.36294921875,-0.9873504638671875,0.0085601806640625,-0.0306854248046875
1638746575309970400,2.372970458984375,-0.9860992431640625,0.01409912109375,-0.023101806640625
1638746575319992600,2.38299267578125,-0.9864654541015625,0.015716552734375,-0.023406982421875
1638746575330014500,2.393014404296875,-0.9853515625,0.0141143798828125,-0.02618408203125
1638746575340035300,2.403035400390625,-0.9874725341796875,0.0095672607421875,-0.028289794921875
1638746575350057500,2.413057373046875,-0.986541748046875,0.0051422119140625,-0.0334625244140625
1638746575360078300,2.423078369140625,-0.9875335693359375,-0.001220703125,-0.04217529296875
1638746575370100500,2.4331005859375,-0.9882354736328125,-0.013824462890625,-0.034149169921875
1638746575380121300,2.443121337890625,-0.9796142578125,-0.0167236328125,-0.023590087890625
1638746575390143500,2.4531435546875,-0.9713897705078125,-0.01324462890625,-0.019073486328125
1638746575400164400,2.463164306640625,-0.973388671875,-0.01202392578125,-0.0190277099609375
1638746575410186500,2.4731865234375,-0.9825439453125,-0.016815185546875,-0.0186920166015625
1638746575420208400,2.48320849609375,-0.9901885986328125,-0.02239990234375,-0.0124053955078125
1638746575430229500,2.4932294921875,-0.9919891357421875,-0.02813720703125,-0.00836181640625
1638746575440251400,2.50325146484375,-0.987548828125,-0.0271759033203125,-0.0053863525390625
1638746575450272300,2.513272216796875,-0.977691650390625,-0.020050048828125,-0.0164794921875
1638746575460294400,2.52329443359375,-0.97760009765625,-0.00628662109375,-0.030914306640625
1638746575470315500,2.5333154296875,-0.9847412109375,0.004913330078125,-0.04327392578125
1638746575480337400,2.54333740234375,-0.99652099609375,0.01251220703125,-0.0538787841796875
1638746575490358300,2.553358154296875,-1.002899169921875,0.016143798828125,-0.0622100830078125
1638746575500380400,2.56338037109375,-1.0047454833984375,0.0185546875,-0.06072998046875
1638746575510402600,2.573402587890625,-1.0040740966796875,0.01495361328125,-0.0550689697265625
1638746575520423400,2.58342333984375,-1.0013885498046875,0.0134429931640625,-0.0502777099609375
1638746575530445300,2.5934453125,-0.9935455322265625,0.017486572265625,-0.04541015625
1638746575540466400,2.603466552734375,-0.98748779296875,0.022247314453125,-0.050933837890625
1638746575550488600,2.613488525390625,-0.991668701171875,0.015655517578125,-0.0528106689453125
1638746575560509400,2.623509521484375,-0.9963226318359375,0.0050201416015625,-0.045379638671875
1638746575570531300,2.63353125,-0.99951171875,-0.007080078125,-0.0457000732421875
1638746575580553500,2.643553466796875,-0.9957275390625,-0.0113372802734375,-0.044586181640625
1638746575590574600,2.65357470703125,-0.990631103515625,-0.016021728515625,-0.0423126220703125
1638746575600596500,2.663596435546875,-0.9882049560546875,-0.024505615234375,-0.0389556884765625
1638746575610617300,2.673617431640625,-0.9859466552734375,-0.03021240234375,-0.0325775146484375
1638746575620639200,2.68363916015625,-0.984222412109375,-0.0336761474609375,-0.035858154296875
1638746575630660600,2.69366064453125,-0.9828948974609375,-0.0331878662109375,-0.0368804931640625
1638746575640682500,2.7036826171875,-0.9835968017578125,-0.028656005859375,-0.036956787109375
1638746575650703400,2.713703369140625,-0.98590087890625,-0.0210418701171875,-0.0393829345703125
1638746575660725200,2.723725341796875,-0.9894561767578125,-0.013763427734375,-0.0406646728515625
1638746575670747400,2.733747314453125,-0.991973876953125,-0.0095367431640625,-0.037628173828125
1638746575680768500,2.7437685546875,-0.99163818359375,-0.0024871826171875,-0.0339202880859375
1638746575690790400,2.753790283203125,-0.99285888671875,0.0054473876953125,-0.0243072509765625
1638746575700811300,2.763811279296875,-0.9940185546875,0.0081939697265625,-0.0227203369140625
1638746575710833700,2.773833740234375,-0.995025634765625,0.0021514892578125,-0.0232391357421875
1638746575720854500,2.7838544921875,-0.99481201171875,-0.004547119140625,-0.026519775390625
1638746575730877000,2.793876953125,-0.9958953857421875,-0.0069732666015625,-0.0286407470703125
1638746575740897800,2.803897705078125,-0.995269775390625,-0.0106048583984375,-0.0323486328125
1638746575750920000,2.813919921875,-0.9962310791015625,-0.0193634033203125,-0.0289306640625
1638746575760941800,2.82394189453125,-0.9931793212890625,-0.0316619873046875,-0.02374267578125
1638746575770962700,2.833962646484375,-0.9842376708984375,-0.0422821044921875,-0.0197601318359375
1638746575780984800,2.84398486328125,-0.97686767578125,-0.04644775390625,-0.01336669921875
1638746575791006000,2.854005859375,-0.9737396240234375,-0.0404510498046875,-0.00677490234375
1638746575801027800,2.86402783203125,-0.97381591796875,-0.0306243896484375,-0.0071258544921875
1638746575811048700,2.874048583984375,-0.974029541015625,-0.025848388671875,-0.015411376953125
1638746575821070800,2.88407080078125,-0.976898193359375,-0.0215911865234375,-0.02850341796875
1638746575831092000,2.894092041015625,-0.98321533203125,-0.0123748779296875,-0.0398101806640625
1638746575841113900,2.90411376953125,-0.9931182861328125,-0.0012664794921875,-0.0457611083984375
1638746575851135700,2.9141357421875,-1.0022735595703125,0.0030059814453125,-0.0435791015625
1638746575861156600,2.924156494140625,-1.0064849853515625,0.006317138671875,-0.0402984619140625
1638746575871178800,2.9341787109375,-1.0042266845703125,0.0092010498046875,-0.0444793701171875
1638746575881199900,2.944199951171875,-0.9981842041015625,0.013153076171875,-0.0524749755859375
1638746575891221800,2.9542216796875,-0.990875244140625,0.02447509765625,-0.0607757568359375
1638746575901242600,2.96424267578125,-0.9867706298828125,0.0350189208984375,-0.0631103515625
1638746575911265000,2.97426513671875,-0.9899139404296875,0.035308837890625,-0.063262939453125
1638746575921286000,2.984285888671875,-0.998138427734375,0.0168609619140625,-0.0653533935546875
1638746575931307800,2.994307861328125,-1.005340576171875,-0.009796142578125,-0.0592803955078125
1638746575941329700,3.00432958984375,-1.005767822265625,-0.02471923828125,-0.0467071533203125
1638746575951351000,3.01435107421875,-0.99896240234375,-0.02459716796875,-0.035308837890625
1638746575961373000,3.024373046875,-0.9919891357421875,-0.0181884765625,-0.024871826171875
1638746575971393800,3.034393798828125,-0.987762451171875,-0.010498046875,-0.0157470703125
1638746575981415700,3.044415771484375,-0.9865264892578125,-0.0028839111328125,-0.009124755859375
1638746575991436800,3.054436767578125,-0.98406982421875,0.002716064453125,-0.007904052734375
1638746576001459000,3.064458984375,-0.983978271484375,0.00714111328125,-0.0094146728515625
1638746576011480800,3.074480712890625,-0.9851837158203125,0.0044708251953125,-0.0134735107421875
1638746576021501700,3.084501708984375,-0.9844207763671875,-0.002227783203125,-0.0207366943359375
1638746576031523600,3.094523681640625,-0.9835662841796875,-0.006927490234375,-0.0254364013671875
1638746576041545000,3.104544921875,-0.986328125,-0.0089569091796875,-0.0276641845703125
1638746576051566800,3.11456689453125,-0.989990234375,-0.00885009765625,-0.029144287109375
1638746576061587700,3.124587646484375,-0.990264892578125,-0.0095672607421875,-0.0281219482421875
1638746576071609900,3.13460986328125,-0.9902496337890625,-0.009735107421875,-0.021270751953125
1638746576081630700,3.144630615234375,-0.988128662109375,-0.01495361328125,-0.014251708984375
1638746576091652900,3.15465283203125,-0.9857025146484375,-0.01812744140625,-0.0070037841796875
1638746576101674800,3.1646748046875,-0.983856201171875,-0.0160675048828125,-0.0030059814453125
1638746576111696000,3.17469580078125,-0.9829864501953125,-0.0149688720703125,-0.002471923828125
1638746576121717800,3.1847177734375,-0.9826202392578125,-0.0154266357421875,-0.0088043212890625
1638746576131739000,3.19473876953125,-0.982025146484375,-0.017822265625,-0.01751708984375
1638746576141760800,3.2047607421875,-0.9810638427734375,-0.020050048828125,-0.030792236328125
1638746576151782000,3.214781982421875,-0.9831695556640625,-0.01959228515625,-0.0439453125
1638746576161803800,3.2248037109375,-0.98822021484375,-0.0185699462890625,-0.0533905029296875
1638746576171824600,3.23482470703125,-0.993927001953125,-0.0155029296875,-0.0589141845703125
1638746576181846800,3.2448466796875,-0.997955322265625,-0.0115509033203125,-0.0560455322265625
1638746576191868700,3.25486865234375,-0.9964752197265625,-0.0079345703125,-0.0445709228515625
1638746576201889800,3.264889892578125,-0.9941864013671875,-0.0010528564453125,-0.0313262939453125
1638746576211912000,3.274911865234375,-0.9929351806640625,0.004608154296875,-0.02099609375
1638746576221932800,3.284932861328125,-0.9900665283203125,0.0059814453125,-0.013702392578125
1638746576231954700,3.29495458984375,-0.986785888671875,0.0024871826171875,-0.0092926025390625
1638746576241975800,3.304975830078125,-0.986175537109375,-0.0026702880859375,-0.0052032470703125
1638746576251997700,3.314997802734375,-0.9886627197265625,-0.0063018798828125,-0.005859375
1638746576262018800,3.325018798828125,-0.98968505859375,-0.0121002197265625,-0.0099334716796875
1638746576272041000,3.335041015625,-0.9912109375,-0.0169219970703125,-0.0149078369140625
1638746576282062800,3.345062744140625,-0.989898681640625,-0.021575927734375,-0.02081298828125
1638746576292083700,3.355083740234375,-0.98626708984375,-0.021820068359375,-0.022186279296875
1638746576302105900,3.36510595703125,-0.9853363037109375,-0.0195465087890625,-0.0218353271484375
1638746576312127000,3.375126953125,-0.9864959716796875,-0.016815185546875,-0.017822265625
1638746576322148900,3.38514892578125,-0.9880523681640625,-0.0117645263671875,-0.0147857666015625
1638746576332169700,3.395169677734375,-0.990447998046875,-0.00628662109375,-0.014251708984375
1638746576342191600,3.405191650390625,-0.991790771484375,-0.003692626953125,-0.013916015625
1638746576352213000,3.415212890625,-0.9921417236328125,-0.0037078857421875,-0.0156097412109375
1638746576362235000,3.42523486328125,-0.9903411865234375,-0.0052337646484375,-0.020416259765625
1638746576372256800,3.4352568359375,-0.9889984130859375,-0.008087158203125,-0.0269012451171875
1638746576382277600,3.445277587890625,-0.988922119140625,-0.0101318359375,-0.0320892333984375
1638746576392299800,3.4552998046875,-0.989471435546875,-0.011993408203125,-0.0343017578125
1638746576402321000,3.46532080078125,-0.9913177490234375,-0.014434814453125,-0.031951904296875
1638746576412342800,3.4753427734375,-0.9911956787109375,-0.01654052734375,-0.0285186767578125
1638746576422363600,3.48536376953125,-0.9893798828125,-0.0165557861328125,-0.0222930908203125
1638746576432386000,3.495385986328125,-0.98583984375,-0.016510009765625,-0.018280029296875
1638746576442408000,3.505407958984375,-0.9773406982421875,-0.0142059326171875,-0.019439697265625
1638746576452428800,3.5154287109375,-0.9711761474609375,-0.0095062255859375,-0.021575927734375
1638746576462450700,3.52545068359375,-0.9762115478515625,0.0003204345703125,-0.0268096923828125
1638746576472471800,3.535471923828125,-0.9908294677734375,0.00927734375,-0.0270538330078125
1638746576482494000,3.545493896484375,-1.00469970703125,0.010589599609375,-0.0242919921875
1638746576492514800,3.555514892578125,-1.008819580078125,0.0093536376953125,-0.0178680419921875
1638746576502536700,3.56553662109375,-1.0020294189453125,0.0117645263671875,-0.0147552490234375
1638746576512557800,3.575557861328125,-0.9956817626953125,0.011810302734375,-0.0181884765625
1638746576522580000,3.585580078125,-0.9952850341796875,0.0035858154296875,-0.0301513671875
1638746576532601900,3.595601806640625,-0.9960479736328125,-0.0054931640625,-0.04095458984375
1638746576542622700,3.605622802734375,-0.995880126953125,-0.0136260986328125,-0.0438385009765625
1638746576552644600,3.61564453125,-0.9936676025390625,-0.018463134765625,-0.0435333251953125
1638746576562665700,3.625665771484375,-0.98907470703125,-0.0204315185546875,-0.042022705078125
1638746576572688000,3.63568798828125,-0.9883270263671875,-0.019287109375,-0.0386199951171875
1638746576582708700,3.645708740234375,-0.9894256591796875,-0.0171661376953125,-0.0304718017578125
1638746576592731000,3.65573095703125,-0.990631103515625,-0.014556884765625,-0.0200653076171875
1638746576602751700,3.665751708984375,-0.99053955078125,-0.01171875,-0.01202392578125
1638746576612774000,3.67577392578125,-0.98876953125,-0.0087432861328125,-0.00653076171875
1638746576622795800,3.685795654296875,-0.986602783203125,-0.0070953369140625,-0.0047149658203125
1638746576632817000,3.69581689453125,-0.98492431640625,-0.007293701171875,-0.00445556640625
1638746576642838800,3.7058388671875,-0.9843597412109375,-0.007904052734375,-0.0084991455078125
1638746576652860000,3.71585986328125,-0.984344482421875,-0.0093994140625,-0.0146026611328125
1638746576662881800,3.7258818359375,-0.986541748046875,-0.0123138427734375,-0.0205230712890625
1638746576672903000,3.73590283203125,-0.9860992431640625,-0.0129852294921875,-0.025482177734375
1638746576682924800,3.7459248046875,-0.9864349365234375,-0.013427734375,-0.028289794921875
1638746576692945700,3.755945556640625,-0.9871978759765625,-0.0128631591796875,-0.02764892578125
1638746576702967800,3.7659677734375,-0.9874114990234375,-0.011322021484375,-0.02862548828125
1638746576712989700,3.77598974609375,-0.9901123046875,-0.009307861328125,-0.0277862548828125
1638746576723010800,3.7860107421875,-0.990478515625,-0.0082855224609375,-0.0278778076171875
1638746576733032400,3.796032470703125,-0.9911956787109375,-0.007293701171875,-0.0271148681640625
1638746576743053300,3.80605322265625,-0.9927825927734375,-0.0058746337890625,-0.0259857177734375
1638746576753075500,3.816075439453125,-0.99151611328125,-0.0062408447265625,-0.0257720947265625
1638746576763096300,3.826096435546875,-0.9904937744140625,-0.0063629150390625,-0.0248260498046875
1638746576773118500,3.836118408203125,-0.990875244140625,-0.007598876953125,-0.024383544921875
1638746576783139600,3.8461396484375,-0.991455078125,-0.008514404296875,-0.022369384765625
1638746576793161500,3.856161376953125,-0.9907073974609375,-0.0086822509765625,-0.02032470703125
1638746576803183400,3.866183349609375,-0.9905242919921875,-0.0086669921875,-0.019073486328125
1638746576813204500,3.87620458984375,-0.990325927734375,-0.0098114013671875,-0.018524169921875
1638746576823226400,3.886226318359375,-0.9902191162109375,-0.0100250244140625,-0.02032470703125
1638746576833247500,3.89624755859375,-0.989532470703125,-0.0096893310546875,-0.0208740234375
1638746576843269400,3.906269287109375,-0.99017333984375,-0.008819580078125,-0.0211944580078125
1638746576853290200,3.916290283203125,-0.990753173828125,-0.0087127685546875,-0.0223236083984375
1638746576863312400,3.9263125,-0.9891510009765625,-0.0085296630859375,-0.0223846435546875
1638746576873334500,3.93633447265625,-0.9887847900390625,-0.0081634521484375,-0.023468017578125
1638746576883355400,3.94635546875,-0.9882965087890625,-0.008026123046875,-0.02337646484375
1638746576893377500,3.95637744140625,-0.9893798828125,-0.0083465576171875,-0.0226898193359375
1638746576903398400,3.9663984375,-0.9895782470703125,-0.0087890625,-0.0240325927734375
1638746576913420500,3.976420654296875,-0.990386962890625,-0.0081634521484375,-0.0250701904296875
1638746576923441400,3.98644140625,-0.990570068359375,-0.0080108642578125,-0.0241546630859375
1638746576933463300,3.99646337890625,-0.99127197265625,-0.0079193115234375,-0.023681640625
1638746576943484700,4.006484619140625,-0.9896697998046875,-0.0075836181640625,-0.0227813720703125
1638746576953506600,4.016506591796875,-0.988800048828125,-0.00762939453125,-0.023956298828125
1638746576963528400,4.026528564453125,-0.9898834228515625,-0.00848388671875,-0.0226287841796875
1638746576973549300,4.03654931640625,-0.9898681640625,-0.00946044921875,-0.0214080810546875
1638746576983571500,4.046571533203125,-0.988677978515625,-0.009002685546875,-0.0202178955078125
1638746576993592600,4.056592529296875,-0.98858642578125,-0.00921630859375,-0.0201873779296875
1638746577003614500,4.066614501953125,-0.989105224609375,-0.0100250244140625,-0.0207672119140625
1638746577013635300,4.07663525390625,-0.98931884765625,-0.008758544921875,-0.0208282470703125
1638746577023657200,4.0866572265625,-0.989593505859375,-0.008575439453125,-0.0214691162109375
1638746577033679400,4.096679443359375,-0.989410400390625,-0.0091552734375,-0.022125244140625
1638746577043700500,4.106700439453125,-0.9891510009765625,-0.0093841552734375,-0.0225982666015625
1638746577053722400,4.116722412109375,-0.9889984130859375,-0.009552001953125,-0.0223541259765625
1638746577063743200,4.1267431640625,-0.989044189453125,-0.0097503662109375,-0.02325439453125
1638746577073765600,4.136765625,-0.9881591796875,-0.010772705078125,-0.0235595703125
1638746577083786500,4.146786376953125,-0.989349365234375,-0.0101470947265625,-0.0238189697265625
1638746577093808400,4.156808349609375,-0.9903411865234375,-0.009735107421875,-0.0233917236328125
1638746577103829500,4.16682958984375,-0.991485595703125,-0.01031494140625,-0.022857666015625
1638746577113851600,4.1768515625,-0.9912872314453125,-0.010406494140625,-0.0230712890625
1638746577123873500,4.18687353515625,-0.9905853271484375,-0.0085296630859375,-0.023101806640625
1638746577133894400,4.196894287109375,-0.9906768798828125,-0.00787353515625,-0.0230255126953125
1638746577143916300,4.206916259765625,-0.989898681640625,-0.0086212158203125,-0.0221099853515625
1638746577153937400,4.2169375,-0.98883056640625,-0.009521484375,-0.021514892578125
1638746577163959600,4.22695947265625,-0.988800048828125,-0.01043701171875,-0.020599365234375
1638746577173980400,4.23698046875,-0.9896240234375,-0.0106353759765625,-0.01898193359375
1638746577184002300,4.247002197265625,-0.9892730712890625,-0.009735107421875,-0.0198211669921875
1638746577194023400,4.2570234375,-0.9892425537109375,-0.0096282958984375,-0.020111083984375
1638746577204045600,4.267045654296875,-0.987884521484375,-0.009033203125,-0.0205841064453125
1638746577214067500,4.2770673828125,-0.9886932373046875,-0.0083770751953125,-0.0225372314453125
1638746577224088300,4.28708837890625,-0.9886627197265625,-0.0073699951171875,-0.02386474609375
1638746577234110500,4.2971103515625,-0.9879608154296875,-0.0072021484375,-0.024078369140625
1638746577244131300,4.30713134765625,-0.988006591796875,-0.0074005126953125,-0.024505615234375
1638746577254153500,4.317153564453125,-0.9893798828125,-0.0084686279296875,-0.024993896484375
1638746577264174300,4.32717431640625,-0.9912109375,-0.0101318359375,-0.0267486572265625
1638746577274196500,4.337196533203125,-0.99224853515625,-0.0108184814453125,-0.0265960693359375
1638746577284217300,4.34721728515625,-0.991455078125,-0.0121002197265625,-0.025054931640625
1638746577294239500,4.357239501953125,-0.99163818359375,-0.0129241943359375,-0.0229644775390625
1638746577304261400,4.367261474609375,-0.989288330078125,-0.0115203857421875,-0.0224456787109375
1638746577314282500,4.377282470703125,-0.986846923828125,-0.0106964111328125,-0.021514892578125
1638746577324304400,4.387304443359375,-0.9876861572265625,-0.0092010498046875,-0.0210113525390625
1638746577334325500,4.397325439453125,-0.9881591796875,-0.0081787109375,-0.0211639404296875
1638746577344347400,4.407347412109375,-0.987548828125,-0.007904052734375,-0.0221710205078125
1638746577354368500,4.417368408203125,-0.988922119140625,-0.0067291259765625,-0.0247039794921875
1638746577364390400,4.427390380859375,-0.9905853271484375,-0.0054473876953125,-0.0273590087890625
1638746577374411300,4.437411376953125,-0.9916839599609375,-0.0039520263671875,-0.0290069580078125
1638746577384433400,4.447433349609375,-0.9942474365234375,-0.00482177734375,-0.0290069580078125
1638746577394455600,4.45745556640625,-0.9918060302734375,-0.006011962890625,-0.0258941650390625
1638746577404476400,4.467476318359375,-0.9909210205078125,-0.006439208984375,-0.0218505859375
1638746577414498300,4.477498291015625,-0.9897918701171875,-0.0076446533203125,-0.01641845703125
1638746577424519400,4.48751953125,-0.9872283935546875,-0.0091094970703125,-0.013885498046875
1638746577434541600,4.49754150390625,-0.9838104248046875,-0.00946044921875,-0.015167236328125
1638746577444562400,4.5075625,-0.9840087890625,-0.0089111328125,-0.0154876708984375
1638746577454584300,4.517584228515625,-0.98614501953125,-0.0114593505859375,-0.01654052734375
1638746577464606500,4.5276064453125,-0.986297607421875,-0.0126190185546875,-0.0168304443359375
1638746577474627600,4.537627685546875,-0.9848785400390625,-0.013427734375,-0.01739501953125
1638746577484649500,4.5476494140625,-0.9818267822265625,-0.013885498046875,-0.020538330078125
1638746577494670300,4.55767041015625,-0.9814300537109375,-0.013641357421875,-0.020477294921875
1638746577504692200,4.567692138671875,-0.981201171875,-0.01214599609375,-0.0199737548828125
1638746577514713600,4.577713623046875,-0.982330322265625,-0.0114288330078125,-0.0236053466796875
1638746577524735500,4.587735595703125,-0.98260498046875,-0.0107879638671875,-0.026763916015625
1638746577534756400,4.59775634765625,-0.985565185546875,-0.0081939697265625,-0.03009033203125
1638746577544778200,4.6077783203125,-0.9902801513671875,-0.005950927734375,-0.0301513671875
1638746577554800400,4.61780029296875,-0.9945831298828125,-0.005340576171875,-0.025726318359375
1638746577564821500,4.627821533203125,-0.992828369140625,-0.0058135986328125,-0.02557373046875
1638746577574843400,4.637843505859375,-0.9891204833984375,-0.0062255859375,-0.023345947265625
1638746577584864300,4.6478642578125,-0.985504150390625,-0.0081787109375,-0.0261688232421875
1638746577594886700,4.65788671875,-0.9834136962890625,-0.0094146728515625,-0.0330352783203125
1638746577604907500,4.667907470703125,-0.9855804443359375,-0.0083160400390625,-0.0421142578125
1638746577614929400,4.677929443359375,-0.989349365234375,-0.008514404296875,-0.0514068603515625
1638746577624950500,4.687950439453125,-0.993988037109375,-0.008148193359375,-0.05841064453125
1638746577634972400,4.697972412109375,-0.996337890625,-0.0077362060546875,-0.0589752197265625
1638746577644994600,4.70799462890625,-0.9972381591796875,-0.0052032470703125,-0.0554351806640625
1638746577655015400,4.718015380859375,-0.9946136474609375,-0.00518798828125,-0.0542144775390625
1638746577665037300,4.728037353515625,-0.9898834228515625,-0.0039825439453125,-0.058990478515625
1638746577675058400,4.738058349609375,-0.98773193359375,0.00006103515625,-0.061370849609375
1638746577685080600,4.74808056640625,-0.9881744384765625,0.0020751953125,-0.0562896728515625
1638746577695101400,4.758101318359375,-0.9919281005859375,0.0047454833984375,-0.050140380859375
1638746577705123300,4.768123291015625,-0.997711181640625,0.007904052734375,-0.0444488525390625
1638746577715144400,4.77814453125,-1.0036773681640625,0.009063720703125,-0.0424652099609375
1638746577725166300,4.788166259765625,-1.006317138671875,0.009307861328125,-0.0424346923828125
1638746577735188700,4.798188720703125,-1.00396728515625,0.01019287109375,-0.0438690185546875
1638746577745209600,4.808209716796875,-1.0005035400390625,0.0076751708984375,-0.0418701171875
1638746577755231700,4.818231689453125,-0.996429443359375,-0.000152587890625,-0.0382537841796875
1638746577765252600,4.828252685546875,-0.9923095703125,-0.005828857421875,-0.0343170166015625
1638746577775274800,4.838274658203125,-0.9918975830078125,-0.0066986083984375,-0.03265380859375
1638746577785295600,4.848295654296875,-0.9921417236328125,-0.0067901611328125,-0.0326080322265625
1638746577795317800,4.85831787109375,-0.9891357421875,-0.0089111328125,-0.0328216552734375
1638746577805339600,4.868339599609375,-0.984130859375,-0.01300048828125,-0.0371551513671875
1638746577815360800,4.87836083984375,-0.9856414794921875,-0.0102081298828125,-0.0359039306640625
1638746577825382700,4.888382568359375,-0.99658203125,-0.008453369140625,-0.0377655029296875
1638746577835403800,4.89840380859375,-1.000030517578125,-0.0133819580078125,-0.0386962890625
1638746577845425700,4.90842578125,-0.9895782470703125,-0.0172882080078125,-0.0361328125
1638746577855446500,4.918446533203125,-0.9777069091796875,-0.013397216796875,-0.03570556640625
1638746577865468700,4.92846875,-0.9799346923828125,-0.002471923828125,-0.036956787109375
1638746577875489800,4.93848974609375,-0.993377685546875,-0.0015716552734375,-0.037811279296875
1638746577885511700,4.94851171875,-1.0009002685546875,-0.0073699951171875,-0.03680419921875
1638746577895533800,4.958533935546875,-0.993743896484375,-0.00970458984375,-0.0308380126953125
1638746577905554700,4.9685546875,-0.9815216064453125,-0.0105438232421875,-0.0264739990234375
1638746577915576600,4.97857666015625,-0.9741058349609375,-0.0110321044921875,-0.0240478515625
1638746577925597700,4.98859765625,-0.9733123779296875,-0.012298583984375,-0.022796630859375
1638746577935619600,4.99861962890625,-0.97491455078125,-0.014312744140625,-0.0246429443359375
1638746577945640700,5.008640625,-0.9766693115234375,-0.015655517578125,-0.0269927978515625
1638746577955662800,5.018662841796875,-0.9806060791015625,-0.0166473388671875,-0.028778076171875
1638746577965683700,5.02868359375,-0.97845458984375,-0.0157623291015625,-0.034088134765625
1638746577975705600,5.03870556640625,-0.9808502197265625,-0.0157623291015625,-0.03887939453125
1638746577985727700,5.048727783203125,-0.9869537353515625,-0.0167999267578125,-0.0422821044921875
1638746577995748900,5.058748779296875,-0.9925384521484375,-0.013214111328125,-0.04351806640625
1638746578005770800,5.068770751953125,-0.9954071044921875,-0.0092620849609375,-0.0442657470703125
1638746578015791600,5.07879150390625,-0.9963531494140625,-0.00848388671875,-0.0482635498046875
1638746578025813500,5.0888134765625,-0.9964752197265625,-0.0065155029296875,-0.0496673583984375
1638746578035835000,5.0988349609375,-0.994720458984375,-0.0025634765625,-0.050567626953125
1638746578045856800,5.108856689453125,-0.993438720703125,-0.0027618408203125,-0.050933837890625
1638746578055877600,5.118877685546875,-0.9902801513671875,-0.0066375732421875,-0.0500640869140625
1638746578065899500,5.1288994140625,-0.9876861572265625,-0.0064239501953125,-0.0450897216796875
1638746578075921700,5.138921630859375,-0.9861602783203125,-0.002593994140625,-0.0397186279296875
1638746578085942800,5.14894287109375,-0.987030029296875,-0.00177001953125,-0.0391693115234375
1638746578095964700,5.158964599609375,-0.986724853515625,-0.001800537109375,-0.0383758544921875
1638746578105985500,5.168985595703125,-0.9898223876953125,-0.00146484375,-0.0392608642578125
1638746578116007700,5.179007568359375,-0.992828369140625,-0.001861572265625,-0.0460205078125
1638746578126028800,5.18902880859375,-0.997222900390625,-0.000518798828125,-0.05279541015625
1638746578136050700,5.19905078125,-0.9988861083984375,0.0000152587890625,-0.0592193603515625
1638746578146071600,5.209071533203125,-0.9998016357421875,0.000762939453125,-0.06158447265625
1638746578156093700,5.21909375,-1.00128173828125,0.0028839111328125,-0.0573577880859375
1638746578166115800,5.22911572265625,-0.9993743896484375,0.0016021728515625,-0.0522003173828125
1638746578176136700,5.23913671875,-0.9926910400390625,0.001068115234375,-0.0496063232421875
1638746578186158600,5.24915869140625,-0.989471435546875,-0.0001678466796875,-0.0455780029296875
1638746578196179700,5.2591796875,-0.990753173828125,-0.001953125,-0.0419921875
1638746578206201900,5.269201904296875,-0.993408203125,-0.0051116943359375,-0.036041259765625
1638746578216222700,5.27922265625,-0.992645263671875,-0.00799560546875,-0.0323333740234375
1638746578226244600,5.28924462890625,-0.986846923828125,-0.009796142578125,-0.0316619873046875
1638746578236265700,5.299265625,-0.9840545654296875,-0.0117340087890625,-0.033721923828125
1638746578246287600,5.30928759765625,-0.9827117919921875,-0.0131072998046875,-0.0382080078125
1638746578256309800,5.319309814453125,-0.9859466552734375,-0.0121307373046875,-0.039642333984375
1638746578266330600,5.32933056640625,-0.991058349609375,-0.008880615234375,-0.0383453369140625
1638746578276352800,5.339352783203125,-0.9920654296875,-0.0095672607421875,-0.033355712890625
1638746578286373600,5.34937353515625,-0.9896392822265625,-0.01416015625,-0.0260467529296875
1638746578296395800,5.359395751953125,-0.979888916015625,-0.0168609619140625,-0.0216522216796875
1638746578306416600,5.369416748046875,-0.971954345703125,-0.01666259765625,-0.0187530517578125
1638746578316438800,5.379438720703125,-0.9716949462890625,-0.0157623291015625,-0.0177764892578125
1638746578326460700,5.389460693359375,-0.97833251953125,-0.0143585205078125,-0.019561767578125
1638746578336481500,5.3994814453125,-0.9858856201171875,-0.0121917724609375,-0.023162841796875
1638746578346503700,5.409503662109375,-0.9869842529296875,-0.0110626220703125,-0.024749755859375
1638746578356524800,5.41952490234375,-0.9840240478515625,-0.0092620849609375,-0.03167724609375
1638746578366546700,5.429546630859375,-0.980224609375,-0.004791259765625,-0.043121337890625
1638746578376567600,5.439567626953125,-0.984710693359375,-0.0000762939453125,-0.0533294677734375
1638746578386589700,5.449589599609375,-0.993133544921875,0.007415771484375,-0.0623779296875
1638746578396610800,5.45961083984375,-1.0008697509765625,0.01336669921875,-0.0704345703125
1638746578406632700,5.4696328125,-1.0060577392578125,0.0152587890625,-0.0730438232421875
1638746578416654600,5.479654541015625,-1.0104827880859375,0.013336181640625,-0.0708160400390625
1638746578426675700,5.48967578125,-1.00909423828125,0.0132293701171875,-0.0668792724609375
1638746578436697600,5.499697509765625,-1.00775146484375,0.01385498046875,-0.063079833984375
1638746578446718700,5.50971875,-1.0068206787109375,0.012664794921875,-0.0611572265625
1638746578456740600,5.51974072265625,-1.00738525390625,0.00848388671875,-0.0548095703125
1638746578466761500,5.529761474609375,-1.007171630859375,0.0001220703125,-0.0447998046875
1638746578476783900,5.539783935546875,-0.9994964599609375,-0.009429931640625,-0.0386962890625
1638746578486804700,5.5498046875,-0.9870758056640625,-0.0177001953125,-0.03607177734375
1638746578496826600,5.55982666015625,-0.9778900146484375,-0.021881103515625,-0.0359344482421875
1638746578506848500,5.5698486328125,-0.9759979248046875,-0.0258331298828125,-0.03070068359375
1638746578516870000,5.579869873046875,-0.97601318359375,-0.0304412841796875,-0.0188140869140625
1638746578526891800,5.589891845703125,-0.9738311767578125,-0.0250091552734375,-0.0009918212890625
1638746578536912600,5.59991259765625,-0.975128173828125,-0.0066986083984375,0.018310546875
1638746578546934500,5.6099345703125,-0.9866790771484375,0.008636474609375,0.0296630859375
1638746578556955600,5.61995556640625,-0.9972991943359375,0.01092529296875,0.0191802978515625
1638746578566977800,5.629977783203125,-0.9969329833984375,0.0181121826171875,-0.0153656005859375
1638746578576998700,5.63999853515625,-0.998046875,0.026519775390625,-0.0505218505859375
1638746578587020500,5.6500205078125,-0.9969482421875,0.0196380615234375,-0.07611083984375
1638746578597042700,5.660042724609375,-0.98809814453125,0.00286865234375,-0.0897369384765625
1638746578607063800,5.670063720703125,-0.9782257080078125,-0.01361083984375,-0.0863800048828125
1638746578617085700,5.680085693359375,-0.9724578857421875,-0.0201568603515625,-0.0713653564453125
1638746578627106600,5.6901064453125,-0.9756011962890625,-0.0170135498046875,-0.048553466796875
1638746578637128700,5.700128662109375,-0.98614501953125,-0.0142059326171875,-0.02264404296875
1638746578647149800,5.71014990234375,-0.9969940185546875,-0.0191497802734375,-0.0029449462890625
1638746578657171700,5.720171630859375,-0.9958038330078125,-0.020294189453125,0.0047454833984375
1638746578667192600,5.730192626953125,-0.986236572265625,-0.0142974853515625,0.0001678466796875
1638746578677214700,5.740214599609375,-0.9808349609375,-0.01043701171875,-0.0086669921875
1638746578687236900,5.75023681640625,-0.979400634765625,-0.010040283203125,-0.0167236328125
1638746578697257700,5.7602578125,-0.980194091796875,-0.00830078125,-0.023101806640625
1638746578707279600,5.770279541015625,-0.9818115234375,-0.0062255859375,-0.028411865234375
1638746578717300700,5.78030078125,-0.9859619140625,-0.0070343017578125,-0.029571533203125
1638746578727322600,5.790322509765625,-0.9878387451171875,-0.0096435546875,-0.0271759033203125
1638746578737344000,5.800343994140625,-0.9874725341796875,-0.0138092041015625,-0.022857666015625
1638746578747366000,5.810365966796875,-0.98504638671875,-0.0172576904296875,-0.0200042724609375
1638746578757387800,5.8203876953125,-0.9834442138671875,-0.016845703125,-0.0211029052734375
1638746578767409000,5.830408935546875,-0.9824676513671875,-0.014678955078125,-0.0292510986328125
1638746578777431000,5.84043115234375,-0.9855499267578125,-0.01348876953125,-0.040924072265625
1638746578787452000,5.850451904296875,-0.99298095703125,-0.0121002197265625,-0.0460205078125
1638746578797473800,5.860473876953125,-0.9986572265625,-0.0101318359375,-0.0488128662109375
1638746578807495000,5.870494873046875,-1.000640869140625,-0.0061187744140625,-0.0476837158203125
1638746578817517000,5.88051708984375,-0.9984283447265625,-0.0060882568359375,-0.0420684814453125
1638746578827538000,5.890537841796875,-0.994415283203125,-0.0045623779296875,-0.035552978515625
1638746578837560000,5.90056005859375,-0.99176025390625,-0.0029449462890625,-0.03021240234375
1638746578847582000,5.91058203125,-0.9930419921875,-0.0030670166015625,-0.0244293212890625
1638746578857602800,5.920602783203125,-0.99462890625,-0.0069122314453125,-0.020172119140625
1638746578867625000,5.930625,-0.9954986572265625,-0.0096588134765625,-0.01824951171875
1638746578877646000,5.94064599609375,-0.9939422607421875,-0.0112457275390625,-0.019989013671875
1638746578887668000,5.95066796875,-0.993194580078125,-0.011566162109375,-0.023345947265625
1638746578897688800,5.960688720703125,-0.989990234375,-0.0097503662109375,-0.02764892578125
1638746578907711000,5.9707109375,-0.99005126953125,-0.00616455078125,-0.0308074951171875
1638746578917732000,5.980732177734375,-0.9904632568359375,-0.005035400390625,-0.0316925048828125
1638746578927754000,5.99075390625,-0.9898223876953125,-0.0011138916015625,-0.0306854248046875
1638746578937775900,6.00077587890625,-0.9899444580078125,0.0019073486328125,-0.027679443359375
1638746578947796700,6.010796630859375,-0.99017333984375,0.0005645751953125,-0.0261993408203125
1638746578957819000,6.02081884765625,-0.9888458251953125,0.000030517578125,-0.0236358642578125
1638746578967840000,6.030840087890625,-0.9878387451171875,0.0001678466796875,-0.0214691162109375
1638746578977862000,6.04086181640625,-0.986785888671875,-0.0021209716796875,-0.01666259765625
1638746578987882800,6.0508828125,-0.9874420166015625,-0.0048675537109375,-0.0155792236328125
1638746578997905000,6.06090478515625,-0.9864044189453125,-0.005828857421875,-0.015380859375
1638746579007927000,6.070927001953125,-0.9858856201171875,-0.008819580078125,-0.015655517578125
1638746579017948000,6.080947998046875,-0.98785400390625,-0.011566162109375,-0.01617431640625
1638746579027969800,6.0909697265625,-0.9864959716796875,-0.0117340087890625,-0.0180206298828125
1638746579037991200,6.1009912109375,-0.9868316650390625,-0.010833740234375,-0.021728515625
1638746579048013000,6.111012939453125,-0.988800048828125,-0.0113067626953125,-0.0240325927734375
1638746579058034000,6.121033935546875,-0.98974609375,-0.01214599609375,-0.024078369140625
1638746579068055800,6.131055908203125,-0.9891510009765625,-0.013214111328125,-0.0208282470703125
1638746579078077000,6.141076904296875,-0.9853668212890625,-0.01580810546875,-0.0137481689453125
1638746579088099000,6.15109912109375,-0.97943115234375,-0.0229949951171875,-0.003875732421875
1638746579098121000,6.161120849609375,-0.9745330810546875,-0.0374908447265625,-0.001983642578125
1638746579108141800,6.171141845703125,-0.9570465087890625,-0.03448486328125,-0.0184783935546875
1638746579118163700,6.181163818359375,-0.9541168212890625,-0.00872802734375,-0.03472900390625
1638746579128185000,6.19118505859375,-0.9893035888671875,0.0130462646484375,-0.054901123046875
1638746579138207000,6.20120703125,-1.030242919921875,0.018310546875,-0.064178466796875
1638746579148227800,6.211227783203125,-1.0450439453125,0.01910400390625,-0.0584564208984375
1638746579158249700,6.221249755859375,-1.03106689453125,0.014190673828125,-0.0573883056640625
1638746579168270800,6.231270751953125,-1.0016326904296875,0.0041046142578125,-0.0567779541015625
1638746579178293000,6.24129296875,-0.9785614013671875,-0.00152587890625,-0.050018310546875
1638746579188315000,6.25131494140625,-0.9733123779296875,-0.008544921875,-0.03936767578125
1638746579198336000,6.2613359375,-0.980133056640625,-0.0217742919921875,-0.029541015625
1638746579208358100,6.271358154296875,-0.9893035888671875,-0.03173828125,-0.0226898193359375
1638746579218379000,6.28137890625,-0.995269775390625,-0.031951904296875,-0.016448974609375
1638746579228401000,6.29140087890625,-0.9990997314453125,-0.02691650390625,-0.0121307373046875
1638746579238422000,6.301422119140625,-0.9986419677734375,-0.0216827392578125,-0.009185791015625
1638746579248444000,6.31144384765625,-0.990264892578125,-0.0157623291015625,-0.0082855224609375
1638746579258465000,6.321465087890625,-0.979156494140625,-0.0092926025390625,-0.009002685546875
1638746579268487000,6.33148681640625,-0.9739227294921875,-0.004547119140625,-0.013275146484375
1638746579278508800,6.3415087890625,-0.9775543212890625,-0.00250244140625,-0.020721435546875
1638746579288530000,6.351530029296875,-0.9848785400390625,-0.0025787353515625,-0.0271453857421875
1638746579298552000,6.361552001953125,-0.991790771484375,-0.0052337646484375,-0.0320281982421875
1638746579308573000,6.371572998046875,-0.994415283203125,-0.0070953369140625,-0.0323028564453125
1638746579318594800,6.3815947265625,-0.990875244140625,-0.009368896484375,-0.029144287109375
1638746579328616000,6.391615966796875,-0.9858245849609375,-0.011688232421875,-0.028228759765625
1638746579338637800,6.401637939453125,-0.9828338623046875,-0.0121307373046875,-0.0264739990234375
1638746579348659000,6.411658935546875,-0.983917236328125,-0.0114898681640625,-0.02532958984375
1638746579358681000,6.42168115234375,-0.98712158203125,-0.0094451904296875,-0.023773193359375
1638746579368703000,6.431702880859375,-0.98846435546875,-0.007080078125,-0.0222320556640625
1638746579378723800,6.441723876953125,-0.99249267578125,-0.00531005859375,-0.022369384765625
1638746579388746000,6.45174609375,-0.992034912109375,-0.003570556640625,-0.022186279296875
1638746579398767000,6.46176708984375,-0.99169921875,-0.0022430419921875,-0.021575927734375
1638746579408789000,6.4717890625,-0.990997314453125,-0.0024566650390625,-0.022369384765625
1638746579418809900,6.481809814453125,-0.98956298828125,-0.0047454833984375,-0.0236358642578125
1638746579428832000,6.49183203125,-0.9903717041015625,-0.0049591064453125,-0.0232696533203125
1638746579438854000,6.50185400390625,-0.98992919921875,-0.0063629150390625,-0.0238494873046875
1638746579448875000,6.511875,-0.99169921875,-0.0075531005859375,-0.0236053466796875
1638746579458897000,6.52189697265625,-0.991973876953125,-0.00811767578125,-0.02374267578125
1638746579468917800,6.531917724609375,-0.9933624267578125,-0.0090789794921875,-0.023223876953125
1638746579478940000,6.54193994140625,-0.9929656982421875,-0.008575439453125,-0.023223876953125
1638746579488961000,6.5519609375,-0.9929046630859375,-0.0084381103515625,-0.0244903564453125
1638746579498983000,6.56198291015625,-0.9907073974609375,-0.008026123046875,-0.0241851806640625
1638746579509003800,6.572003662109375,-0.9903564453125,-0.008087158203125,-0.0260162353515625
1638746579519026000,6.58202587890625,-0.990386962890625,-0.008056640625,-0.0259246826171875
1638746579529048000,6.592048095703125,-0.9886016845703125,-0.0074005126953125,-0.0257720947265625
1638746579539069000,6.60206884765625,-0.989349365234375,-0.0080413818359375,-0.025604248046875
1638746579549090800,6.6120908203125,-0.9888916015625,-0.008453369140625,-0.0253143310546875
1638746579559112000,6.62211181640625,-0.988983154296875,-0.0100860595703125,-0.0246734619140625
1638746579569134000,6.632134033203125,-0.988800048828125,-0.0114593505859375,-0.0251312255859375
1638746579579155000,6.642155029296875,-0.9883575439453125,-0.0121307373046875,-0.02496337890625
1638746579589176800,6.6521767578125,-0.9879302978515625,-0.012176513671875,-0.0247955322265625
1638746579599198000,6.662197998046875,-0.9882659912109375,-0.0122833251953125,-0.023590087890625
1638746579609220000,6.67222021484375,-0.9876861572265625,-0.01080322265625,-0.0227813720703125
1638746579619242000,6.682241943359375,-0.9895477294921875,-0.009429931640625,-0.02276611328125
1638746579629262800,6.692262939453125,-0.988800048828125,-0.0087890625,-0.0221710205078125
1638746579639284700,6.70228466796875,-0.98828125,-0.0080413818359375,-0.0224151611328125
1638746579649305900,6.712305908203125,-0.989349365234375,-0.0077362060546875,-0.0227508544921875
1638746579659328000,6.722327880859375,-0.989227294921875,-0.0072174072265625,-0.023040771484375
1638746579669348900,6.732348876953125,-0.989532470703125,-0.0072021484375,-0.0237274169921875
1638746579679371000,6.74237109375,-0.9896392822265625,-0.0073699951171875,-0.0253143310546875
1638746579689391900,6.752391845703125,-0.990264892578125,-0.0077972412109375,-0.0268096923828125
1638746579699414000,6.7624140625,-0.9896697998046875,-0.007537841796875,-0.0277557373046875
1638746579709436000,6.772435791015625,-0.98895263671875,-0.0072784423828125,-0.028228759765625
1638746579719457000,6.78245703125,-0.9883575439453125,-0.007598876953125,-0.0284576416015625
1638746579729479000,6.79247900390625,-0.9893798828125,-0.007720947265625,-0.0281829833984375
1638746579739499800,6.802499755859375,-0.9893646240234375,-0.0074462890625,-0.02801513671875
1638746579749521700,6.812521728515625,-0.990570068359375,-0.0081634521484375,-0.0272979736328125
1638746579759542800,6.822542724609375,-0.9903106689453125,-0.00830078125,-0.02618408203125
1638746579769564700,6.832564697265625,-0.98944091796875,-0.0074005126953125,-0.0256805419921875
1638746579779585800,6.842585693359375,-0.990936279296875,-0.006591796875,-0.0249786376953125
1638746579789607700,6.852607666015625,-0.990570068359375,-0.007049560546875,-0.0252532958984375
1638746579799629600,6.862629638671875,-0.9901580810546875,-0.008148193359375,-0.024749755859375
1638746579809650700,6.872650634765625,-0.9908599853515625,-0.0088653564453125,-0.0247344970703125
1638746579819672800,6.8826728515625,-0.9906768798828125,-0.0090179443359375,-0.0255126953125
1638746579829693700,6.892693603515625,-0.989990234375,-0.008880615234375,-0.0260772705078125
1638746579839715800,6.9027158203125,-0.9901885986328125,-0.009246826171875,-0.0249786376953125
1638746579849736700,6.91273681640625,-0.9906158447265625,-0.0095367431640625,-0.0254974365234375
1638746579859758600,6.922758544921875,-0.9888458251953125,-0.0100250244140625,-0.024810791015625
1638746579869780700,6.93278076171875,-0.98895263671875,-0.0093841552734375,-0.0255889892578125
1638746579879801900,6.9428017578125,-0.9897918701171875,-0.00982666015625,-0.0255584716796875
1638746579889823700,6.95282373046875,-0.9894561767578125,-0.009674072265625,-0.024749755859375
1638746579899844600,6.9628447265625,-0.9898223876953125,-0.00909423828125,-0.025665283203125
1638746579909866800,6.97286669921875,-0.990234375,-0.0073394775390625,-0.02593994140625
1638746579919888000,6.982887939453125,-0.9894561767578125,-0.009674072265625,-0.026336669921875
1638746579929909800,6.99290966796875,-0.988494873046875,-0.009674072265625,-0.0252838134765625
1638746579939930600,7.0029306640625,-0.9888153076171875,-0.009124755859375,-0.02490234375
1638746579949952800,7.012952880859375,-0.9885711669921875,-0.0091400146484375,-0.025054931640625
1638746579959974700,7.022974609375,-0.989349365234375,-0.010284423828125,-0.0238800048828125
1638746579969995800,7.032995849609375,-0.98809814453125,-0.009765625,-0.02294921875
1638746579980017700,7.043017578125,-0.9890899658203125,-0.00921630859375,-0.0225982666015625
1638746579990038500,7.05303857421875,-0.9894866943359375,-0.009063720703125,-0.023101806640625
1638746580000060700,7.063060791015625,-0.9896392822265625,-0.0095672607421875,-0.0245208740234375
1638746580010081800,7.073081787109375,-0.9903717041015625,-0.0081024169921875,-0.024810791015625
1638746580020103700,7.083103759765625,-0.989105224609375,-0.007354736328125,-0.0258026123046875
1638746580030124500,7.09312451171875,-0.989715576171875,-0.0076751708984375,-0.0254058837890625
1638746580040147000,7.10314697265625,-0.98992919921875,-0.0073699951171875,-0.025177001953125
1638746580050168800,7.1131689453125,-0.990020751953125,-0.0067901611328125,-0.0255279541015625
1638746580060189700,7.123189697265625,-0.990447998046875,-0.007080078125,-0.02532958984375
1638746580070211600,7.133211669921875,-0.9900360107421875,-0.0069122314453125,-0.024261474609375
1638746580080232700,7.143232666015625,-0.99029541015625,-0.007843017578125,-0.0240631103515625
1638746580090254800,7.1532548828125,-0.989776611328125,-0.0088653564453125,-0.0235137939453125
1638746580100275700,7.163275634765625,-0.99005126953125,-0.0087738037109375,-0.0238800048828125
1638746580110297600,7.173297607421875,-0.9902496337890625,-0.008331298828125,-0.0230255126953125
1638746580120318700,7.183318603515625,-0.98870849609375,-0.0086212158203125,-0.024322509765625
1638746580130340900,7.1933408203125,-0.988616943359375,-0.0084381103515625,-0.0243072509765625
1638746580140362800,7.20336279296875,-0.989715576171875,-0.008026123046875,-0.024017333984375
1638746580150383600,7.213383544921875,-0.990142822265625,-0.0081329345703125,-0.0250396728515625
1638746580160405800,7.22340576171875,-0.989715576171875,-0.008056640625,-0.024444580078125
1638746580170427000,7.233427001953125,-0.9892425537109375,-0.008544921875,-0.026092529296875
1638746580180448800,7.24344873046875,-0.9887542724609375,-0.00811767578125,-0.025177001953125
1638746580190469600,7.2534697265625,-0.9889984130859375,-0.00787353515625,-0.0251617431640625
1638746580200491800,7.26349169921875,-0.9893646240234375,-0.0085296630859375,-0.0249176025390625
1638746580210512600,7.2735126953125,-0.990386962890625,-0.008819580078125,-0.025299072265625
1638746580220534800,7.28353466796875,-0.989288330078125,-0.0089111328125,-0.0238037109375
1638746580230556700,7.293556640625,-0.989837646484375,-0.0095367431640625,-0.0239105224609375
1638746580240577800,7.303577880859375,-0.989990234375,-0.0096588134765625,-0.0236968994140625
1638746580250599700,7.313599609375,-0.9901123046875,-0.0095672607421875,-0.0235748291015625
1638746580260620800,7.323620849609375,-0.989288330078125,-0.0095672607421875,-0.0249481201171875
1638746580270642700,7.333642578125,-0.988677978515625,-0.0084991455078125,-0.0244293212890625
1638746580280663800,7.343663818359375,-0.988983154296875,-0.00830078125,-0.0243988037109375
1638746580290685700,7.353685791015625,-0.9899749755859375,-0.0076751708984375,-0.0244293212890625
1638746580300706600,7.36370654296875,-0.9901885986328125,-0.007415771484375,-0.0247650146484375
1638746580310728700,7.373728759765625,-0.9904632568359375,-0.007415771484375,-0.024688720703125
1638746580320750600,7.38375048828125,-0.9901123046875,-0.0074462890625,-0.0242919921875
1638746580330771700,7.393771728515625,-0.9908447265625,-0.00750732421875,-0.0245361328125
1638746580340793600,7.403793701171875,-0.9893341064453125,-0.0076141357421875,-0.02593994140625
1638746580350814700,7.413814697265625,-0.9890594482421875,-0.0089874267578125,-0.026519775390625
1638746580360836900,7.4238369140625,-0.989288330078125,-0.0086517333984375,-0.026947021484375
1638746580370857700,7.433857666015625,-0.98956298828125,-0.0092010498046875,-0.0274810791015625
1638746580380879600,7.443879638671875,-0.990325927734375,-0.009979248046875,-0.0268096923828125
1638746580390900700,7.453900634765625,-0.99053955078125,-0.0092620849609375,-0.0267333984375
1638746580400923000,7.4639228515625,-0.98956298828125,-0.0084228515625,-0.0259857177734375
1638746580410944800,7.47394482421875,-0.989898681640625,-0.0087738037109375,-0.025299072265625
1638746580420965600,7.483965576171875,-0.9892120361328125,-0.0092620849609375,-0.0247802734375
1638746580430987800,7.49398779296875,-0.988677978515625,-0.008575439453125,-0.02484130859375
1638746580441009000,7.5040087890625,-0.989410400390625,-0.008880615234375,-0.0243682861328125
1638746580451030800,7.51403076171875,-0.9900970458984375,-0.00897216796875,-0.0244903564453125
1638746580461051600,7.5240517578125,-0.9898529052734375,-0.0079498291015625,-0.02508544921875
1638746580471073500,7.534073486328125,-0.988983154296875,-0.0086822509765625,-0.0245819091796875
1638746580481095700,7.544095703125,-0.988922119140625,-0.0086669921875,-0.0242462158203125
1638746580491116800,7.55411669921875,-0.9892730712890625,-0.0085296630859375,-0.02398681640625
1638746580501138700,7.564138671875,-0.988922119140625,-0.0082550048828125,-0.024444580078125
1638746580511159600,7.57415966796875,-0.9899749755859375,-0.00860595703125,-0.0248260498046875
1638746580521181700,7.584181640625,-0.990631103515625,-0.0089874267578125,-0.0251312255859375
1638746580531202800,7.594202880859375,-0.991363525390625,-0.0097808837890625,-0.0249786376953125
1638746580541224700,7.604224609375,-0.990447998046875,-0.009490966796875,-0.025360107421875
1638746580551245600,7.61424560546875,-0.9898223876953125,-0.008819580078125,-0.0255126953125
1638746580561267700,7.624267822265625,-0.9896240234375,-0.00885009765625,-0.0249481201171875
1638746580571289900,7.634289794921875,-0.989990234375,-0.007598876953125,-0.02557373046875
1638746580581310700,7.644310791015625,-0.989227294921875,-0.0076446533203125,-0.024566650390625
1638746580591332600,7.65433251953125,-0.989288330078125,-0.0072174072265625,-0.0244293212890625
1638746580601353700,7.664353759765625,-0.988922119140625,-0.0072784423828125,-0.02606201171875
1638746580611375900,7.6743759765625,-0.9890289306640625,-0.007568359375,-0.02569580078125
1638746580621396700,7.684396728515625,-0.9895477294921875,-0.0067138671875,-0.02471923828125
1638746580631418600,7.694418701171875,-0.990631103515625,-0.0078887939453125,-0.024261474609375
1638746580641439700,7.704439697265625,-0.9896087646484375,-0.009063720703125,-0.023162841796875
1638746580651462000,7.7144619140625,-0.9891204833984375,-0.008392333984375,-0.0235595703125
1638746580661483800,7.72448388671875,-0.98797607421875,-0.0089874267578125,-0.02349853515625
1638746580671504600,7.734504638671875,-0.9897918701171875,-0.010162353515625,-0.0240325927734375
1638746580681526800,7.74452685546875,-0.9898529052734375,-0.00909423828125,-0.0248260498046875
1638746580691547600,7.754547607421875,-0.9891510009765625,-0.008453369140625,-0.025970458984375
1638746580701569800,7.76456982421875,-0.9903717041015625,-0.0080413818359375,-0.025299072265625
1638746580711590700,7.774590576171875,-0.9898529052734375,-0.00811767578125,-0.025177001953125
1638746580721612800,7.78461279296875,-0.989044189453125,-0.0085601806640625,-0.025360107421875
1638746580731633700,7.794633544921875,-0.9894256591796875,-0.0088958740234375,-0.02435302734375
1638746580741655300,7.8046552734375,-0.9900360107421875,-0.008209228515625,-0.025299072265625
1638746580751677400,7.814677490234375,-0.9901580810546875,-0.008544921875,-0.023895263671875
1638746580761698600,7.824698486328125,-0.989898681640625,-0.009246826171875,-0.0238494873046875
1638746580771720400,7.834720458984375,-0.989288330078125,-0.0090789794921875,-0.0237274169921875
1638746580781741300,7.8447412109375,-0.989532470703125,-0.0085906982421875,-0.023681640625
1638746580791763500,7.854763427734375,-0.989837646484375,-0.0095367431640625,-0.0238800048828125
1638746580801784600,7.86478466796875,-0.9894866943359375,-0.0095062255859375,-0.024017333984375
1638746580811806500,7.874806396484375,-0.98980712890625,-0.009368896484375,-0.0245819091796875
1638746580821827300,7.884827392578125,-0.9895477294921875,-0.0088043212890625,-0.0251922607421875
1638746580831849200,7.89484912109375,-0.9892120361328125,-0.00885009765625,-0.025421142578125
1638746580841871600,7.90487158203125,-0.9892120361328125,-0.0091400146484375,-0.0264434814453125
1638746580851892500,7.914892578125,-0.989715576171875,-0.0087738037109375,-0.026397705078125
1638746580861914400,7.924914306640625,-0.9903106689453125,-0.008697509765625,-0.025390625
1638746580871935500,7.934935546875,-0.9889984130859375,-0.0091705322265625,-0.0262908935546875
1638746580881957600,7.94495751953125,-0.990264892578125,-0.0077972412109375,-0.02490234375
1638746580891978500,7.954978515625,-0.9908447265625,-0.0078582763671875,-0.02581787109375
1638746580902000400,7.96500048828125,-0.989959716796875,-0.0076904296875,-0.0260009765625
1638746580912021500,7.975021484375,-0.989532470703125,-0.0083465576171875,-0.025146484375
1638746580922043400,7.98504345703125,-0.9890289306640625,-0.0077056884765625,-0.0251007080078125
1638746580932065500,7.9950654296875,-0.989410400390625,-0.008819580078125,-0.02447509765625
1638746580942086400,8.00508642578125,-0.9886322021484375,-0.008941650390625,-0.0230255126953125
1638746580952108300,8.0151083984375,-0.9891510009765625,-0.009307861328125,-0.0237579345703125
1638746580962129400,8.02512939453125,-0.989959716796875,-0.0090179443359375,-0.02435302734375
1638746580972151600,8.035151611328125,-0.9904937744140625,-0.008148193359375,-0.0244598388671875
1638746580982172400,8.04517236328125,-0.9898834228515625,-0.0082855224609375,-0.024658203125
1638746580992194300,8.0551943359375,-0.9886016845703125,-0.0079803466796875,-0.024871826171875
1638746581002216400,8.065216552734375,-0.9891510009765625,-0.00799560546875,-0.024993896484375
1638746581012237600,8.075237548828126,-0.98944091796875,-0.00860595703125,-0.025115966796875
1638746581022259500,8.085259521484375,-0.990386962890625,-0.0081939697265625,-0.0248870849609375
1638746581032280300,8.0952802734375,-0.990020751953125,-0.0078582763671875,-0.0235748291015625
1638746581042302500,8.105302490234376,-0.98785400390625,-0.0066986083984375,-0.0247955322265625
1638746581052323300,8.1153232421875,-0.9870452880859375,-0.0069122314453125,-0.02587890625
1638746581062345500,8.125345458984375,-0.9886016845703125,-0.0071868896484375,-0.027435302734375
1638746581072366600,8.13536669921875,-0.991424560546875,-0.00811767578125,-0.027557373046875
1638746581082388500,8.145388427734375,-0.994110107421875,-0.0080108642578125,-0.02642822265625
1638746581092409300,8.155409423828125,-0.993743896484375,-0.0101165771484375,-0.0239105224609375
1638746581102431500,8.165431396484376,-0.9921112060546875,-0.0104217529296875,-0.0235595703125
1638746581112453400,8.175453369140625,-0.9892578125,-0.0108489990234375,-0.023651123046875
1638746581122474500,8.185474609375,-0.989044189453125,-0.0115814208984375,-0.025146484375
1638746581132496400,8.195496337890624,-0.989715576171875,-0.011474609375,-0.0271759033203125
1638746581142517200,8.205517333984375,-0.98919677734375,-0.009735107421875,-0.0283966064453125
1638746581152539400,8.215539306640625,-0.9894561767578125,-0.009429931640625,-0.02801513671875
1638746581162560500,8.225560546875,-0.98944091796875,-0.0079193115234375,-0.025146484375
1638746581172582400,8.23558251953125,-0.9879302978515625,-0.00885009765625,-0.0230712890625
1638746581182604500,8.2456044921875,-0.9888763427734375,-0.0084228515625,-0.0214385986328125
1638746581192625400,8.25562548828125,-0.9887237548828125,-0.007843017578125,-0.021209716796875
1638746581202647600,8.2656474609375,-0.98883056640625,-0.0078582763671875,-0.020660400390625
1638746581212668400,8.27566845703125,-0.9884796142578125,-0.008544921875,-0.0213470458984375
1638746581222690300,8.285690185546875,-0.988861083984375,-0.009552001953125,-0.0216827392578125
1638746581232711700,8.295711669921875,-0.99017333984375,-0.00970458984375,-0.024139404296875
1638746581242733600,8.305733642578126,-0.9894866943359375,-0.00970458984375,-0.024688720703125
1638746581252754400,8.31575439453125,-0.99017333984375,-0.00872802734375,-0.02569580078125
1638746581262776300,8.3257763671875,-0.99005126953125,-0.009185791015625,-0.025482177734375
1638746581272798500,8.335798583984374,-0.9888153076171875,-0.009002685546875,-0.024810791015625
1638746581282819600,8.345819580078125,-0.9892425537109375,-0.007965087890625,-0.0259246826171875
1638746581292841500,8.355841552734375,-0.9897308349609375,-0.0085906982421875,-0.0240936279296875
1638746581302862300,8.3658623046875,-0.98876953125,-0.009552001953125,-0.0241851806640625
1638746581312884200,8.37588427734375,-0.9882965087890625,-0.0095367431640625,-0.0236358642578125
1638746581322905600,8.385905517578125,-0.9885101318359375,-0.0087127685546875,-0.0225677490234375
1638746581332927500,8.395927490234374,-0.9880828857421875,-0.0085601806640625,-0.0232696533203125
1638746581342948400,8.4059482421875,-0.9876708984375,-0.0092926025390625,-0.021942138671875
1638746581352970200,8.41597021484375,-0.9873046875,-0.0098419189453125,-0.0211944580078125
1638746581362992600,8.42599267578125,-0.986572265625,-0.0093841552734375,-0.021942138671875
1638746581373013500,8.436013427734375,-0.9879608154296875,-0.0096435546875,-0.0226287841796875
1638746581383035400,8.446035400390626,-0.9890594482421875,-0.010223388671875,-0.0237579345703125
1638746581393056500,8.456056396484374,-0.988128662109375,-0.0091705322265625,-0.0273284912109375
1638746581403078400,8.466078369140625,-0.990081787109375,-0.00677490234375,-0.0299224853515625
1638746581413099500,8.476099609375,-0.9920806884765625,-0.0067901611328125,-0.0297088623046875
1638746581423121400,8.486121337890625,-0.994354248046875,-0.009735107421875,-0.02923583984375
1638746581433142500,8.496142578125,-0.9922027587890625,-0.0106048583984375,-0.02801513671875
1638746581443164400,8.506164306640626,-0.9886474609375,-0.011627197265625,-0.027435302734375
1638746581453186600,8.5161865234375,-0.9856719970703125,-0.012908935546875,-0.0269775390625
1638746581463207400,8.52620751953125,-0.98468017578125,-0.01318359375,-0.0259246826171875
1638746581473229300,8.536229248046874,-0.984954833984375,-0.0110931396484375,-0.0254364013671875
1638746581483250400,8.54625048828125,-0.9873504638671875,-0.009765625,-0.0253448486328125
1638746581493272600,8.5562724609375,-0.9909515380859375,-0.00848388671875,-0.0260467529296875
1638746581503293400,8.56629345703125,-0.9934539794921875,-0.005706787109375,-0.02557373046875
1638746581513315300,8.5763154296875,-0.993072509765625,-0.0027008056640625,-0.0253753662109375
1638746581523336400,8.58633642578125,-0.9899139404296875,-0.0034942626953125,-0.0265045166015625
1638746581533358300,8.5963583984375,-0.9890899658203125,-0.007598876953125,-0.0267333984375
1638746581543380500,8.60638037109375,-0.9883880615234375,-0.0104522705078125,-0.0259552001953125
1638746581553401300,8.6164013671875,-0.9874725341796875,-0.0120086669921875,-0.0259857177734375
1638746581563423500,8.626423583984375,-0.983978271484375,-0.012664794921875,-0.025634765625
1638746581573444400,8.6364443359375,-0.9805145263671875,-0.0118408203125,-0.0251007080078125
1638746581583466500,8.646466552734376,-0.9809417724609375,-0.01031494140625,-0.0240478515625
1638746581593487600,8.656487548828125,-0.98651123046875,-0.007843017578125,-0.024200439453125
1638746581603509500,8.666509521484375,-0.9922332763671875,-0.003173828125,-0.0252532958984375
1638746581613531400,8.676531494140624,-0.995880126953125,-0.0014190673828125,-0.0263824462890625
1638746581623552300,8.68655224609375,-0.993988037109375,0.000640869140625,-0.0274200439453125
1638746581633574400,8.696574462890625,-0.992279052734375,0.0013885498046875,-0.0314483642578125
1638746581643595500,8.706595458984374,-0.9920501708984375,-0.000518798828125,-0.0375213623046875
1638746581653617400,8.716617431640625,-0.991668701171875,-0.003631591796875,-0.040435791015625
1638746581663638300,8.72663818359375,-0.9904937744140625,-0.0053253173828125,-0.0417633056640625
1638746581673660400,8.736660400390624,-0.991455078125,-0.004241943359375,-0.0425872802734375
1638746581683681500,8.746681640625,-0.99267578125,-0.004302978515625,-0.0429534912109375
1638746581693703400,8.756703369140626,-0.9951019287109375,-0.0047454833984375,-0.042724609375
1638746581703724300,8.766724365234374,-0.9964599609375,-0.006805419921875,-0.0445098876953125
1638746581713746400,8.776746337890625,-0.998687744140625,-0.009857177734375,-0.043426513671875
1638746581723768600,8.7867685546875,-0.996002197265625,-0.012359619140625,-0.0408782958984375
1638746581733789400,8.79678955078125,-0.9907989501953125,-0.0121612548828125,-0.0395660400390625
1638746581743811800,8.806811767578125,-0.9872894287109375,-0.0152130126953125,-0.035369873046875
1638746581753832700,8.816832763671876,-0.9849395751953125,-0.017791748046875,-0.02996826171875
1638746581763855000,8.826855224609375,-0.985137939453125,-0.014495849609375,-0.024017333984375
1638746581773876000,8.8368759765625,-0.98785400390625,-0.013763427734375,-0.0173797607421875
1638746581783897900,8.84689794921875,-0.991119384765625,-0.0128173828125,-0.0186309814453125
1638746581793920000,8.856919921875,-0.993316650390625,-0.0120391845703125,-0.0251617431640625
1638746581803941000,8.866941162109375,-0.9937896728515625,-0.012725830078125,-0.0346832275390625
1638746581813963000,8.876962890625,-0.994659423828125,-0.01141357421875,-0.0444183349609375
1638746581823983900,8.88698388671875,-0.9983367919921875,-0.0126495361328125,-0.0523681640625
1638746581834005800,8.897005859375,-1.0013427734375,-0.012359619140625,-0.05633544921875
1638746581844027100,8.907027099609374,-1.0015106201171875,-0.0098419189453125,-0.055328369140625
1638746581854049000,8.917049072265625,-0.9990386962890625,-0.0025177001953125,-0.050537109375
1638746581864070000,8.92706982421875,-0.9945526123046875,0.0038604736328125,-0.0446624755859375
1638746581874091800,8.937091796875,-0.9895172119140625,0.00091552734375,-0.0347137451171875
1638746581884114000,8.947114013671875,-0.984130859375,-0.003204345703125,-0.0307159423828125
1638746581894135000,8.957135009765626,-0.982177734375,0.001708984375,-0.02593994140625
1638746581904157000,8.967156982421875,-0.98876953125,0.0015869140625,-0.021728515625
1638746581914177800,8.977177734375,-0.9905853271484375,-0.00286865234375,-0.0220947265625
1638746581924200000,8.987199951171876,-0.988739013671875,-0.00738525390625,-0.022003173828125
1638746581934221000,8.997220947265625,-0.9886627197265625,-0.0098876953125,-0.0217132568359375
1638746581944243000,9.007242919921875,-0.9934539794921875,-0.0126953125,-0.0133209228515625
1638746581954263800,9.017263916015626,-0.9920806884765625,-0.0198211669921875,-0.0138092041015625
1638746581964286000,9.027285888671875,-0.9839630126953125,-0.0245208740234375,-0.0209808349609375
1638746581974308000,9.03730810546875,-0.9798583984375,-0.02606201171875,-0.0252227783203125
1638746581984329000,9.047328857421874,-0.9811553955078125,-0.0274658203125,-0.0271759033203125
1638746581994350800,9.057350830078125,-0.9847412109375,-0.0255889892578125,-0.028533935546875
1638746582004372000,9.0673720703125,-0.987762451171875,-0.0178985595703125,-0.0261688232421875
1638746582014394000,9.07739404296875,-0.9909210205078125,-0.012451171875,-0.02349853515625
1638746582024415000,9.0874150390625,-0.988983154296875,-0.0070343017578125,-0.0263824462890625
1638746582034436900,9.097436767578126,-0.9840850830078125,-0.002655029296875,-0.0329437255859375
1638746582044458000,9.1074580078125,-0.9842071533203125,-0.0016021728515625,-0.0316314697265625
1638746582054480000,9.11747998046875,-0.98876953125,-0.0055084228515625,-0.0235748291015625
1638746582064502000,9.127501953125,-0.9917449951171875,-0.0161285400390625,-0.0146636962890625
1638746582074523000,9.13752294921875,-0.9866180419921875,-0.026153564453125,-0.013824462890625
1638746582084545000,9.147544921875,-0.981842041015625,-0.0284881591796875,-0.01708984375
1638746582094566000,9.15756591796875,-0.98333740234375,-0.0281829833984375,-0.018341064453125
1638746582104588000,9.167588134765625,-0.9873504638671875,-0.02435302734375,-0.017852783203125
1638746582114609000,9.17760888671875,-0.9913330078125,-0.0165863037109375,-0.018890380859375
1638746582124631000,9.187631103515624,-0.9887847900390625,-0.0084686279296875,-0.018157958984375
1638746582134652000,9.19765185546875,-0.9842529296875,-0.0003814697265625,-0.0159454345703125
1638746582144673800,9.207673828125,-0.988677978515625,0.000213623046875,-0.01983642578125
1638746582154696000,9.217696044921874,-1.0014801025390625,-0.009490966796875,-0.03173828125
1638746582164717000,9.227717041015625,-1.004669189453125,-0.0047760009765625,-0.0410614013671875
1638746582174739000,9.237739013671876,-1.0020599365234375,-0.00164794921875,-0.0353240966796875
1638746582184759800,9.247759765625,-0.991912841796875,-0.0112152099609375,-0.01593017578125
1638746582194782000,9.257781982421875,-0.976043701171875,-0.02496337890625,-0.008148193359375
1638746582204803000,9.267802978515626,-0.960906982421875,-0.026031494140625,-0.0211334228515625
1638746582214825000,9.277824951171874,-0.9676361083984375,-0.0120391845703125,-0.0333251953125
1638746582224845800,9.287845703125,-0.997406005859375,-0.0032196044921875,-0.034576416015625
1638746582234868000,9.297867919921876,-1.015167236328125,-0.0010986328125,-0.0247650146484375
1638746582244889900,9.307889892578125,-1.011138916015625,-0.000701904296875,-0.0141448974609375
1638746582254911000,9.317910888671875,-0.992919921875,-0.0009002685546875,-0.01849365234375
1638746582264932900,9.327932861328126,-0.9771575927734375,0.0026092529296875,-0.030303955078125
1638746582274953700,9.33795361328125,-0.9792327880859375,0.002777099609375,-0.03717041015625
1638746582284976000,9.34797607421875,-0.988189697265625,-0.00152587890625,-0.039276123046875
1638746582294997000,9.3579970703125,-0.9942169189453125,-0.0062103271484375,-0.0374908447265625
1638746582305019000,9.368018798828125,-0.9965972900390625,-0.0122528076171875,-0.0350799560546875
1638746582315040000,9.3780400390625,-0.9966278076171875,-0.0121612548828125,-0.036590576171875
1638746582325062100,9.388062255859374,-0.9959869384765625,-0.0099945068359375,-0.037261962890625
1638746582335084000,9.398083984375,-0.9945220947265625,-0.0102386474609375,-0.0365753173828125
1638746582345105000,9.40810498046875,-0.991485595703125,-0.0120086669921875,-0.0326690673828125
1638746582355126800,9.418126708984374,-0.987060546875,-0.0145111083984375,-0.02508544921875
1638746582365148000,9.42814794921875,-0.986175537109375,-0.0170440673828125,-0.018798828125
1638746582375170000,9.438170166015626,-0.9866485595703125,-0.018096923828125,-0.0153350830078125
1638746582385191000,9.44819091796875,-0.989715576171875,-0.018402099609375,-0.011383056640625
1638746582395212800,9.458212890625,-0.9892425537109375,-0.0173797607421875,-0.0048828125
1638746582405234000,9.46823388671875,-0.984039306640625,-0.0161590576171875,0.001617431640625
1638746582415256000,9.478256103515625,-0.9767303466796875,-0.014495849609375,0.0022125244140625
1638746582425278000,9.48827783203125,-0.97210693359375,-0.0115966796875,-0.0065765380859375
1638746582435298800,9.498298828125,-0.977508544921875,-0.006378173828125,-0.0221710205078125
1638746582445321000,9.508321044921875,-0.9899749755859375,-0.0012969970703125,-0.0341033935546875
1638746582455341800,9.518341796875,-1.0011138916015625,-0.00128173828125,-0.04046630859375
1638746582465364000,9.528364013671874,-1.0035247802734375,-0.0030059814453125,-0.0439605712890625
1638746582475384800,9.538384765625,-0.997772216796875,-0.0073394775390625,-0.0447235107421875
1638746582485407000,9.548406982421875,-0.99176025390625,-0.0111846923828125,-0.04296875
1638746582495427800,9.558427734375,-0.9888916015625,-0.013641357421875,-0.038787841796875
1638746582505450000,9.568449951171875,-0.989837646484375,-0.0171966552734375,-0.032562255859375
1638746582515472000,9.578471923828126,-0.991973876953125,-0.0181427001953125,-0.0251617431640625
1638746582525493000,9.588492919921874,-0.9921112060546875,-0.017364501953125,-0.020843505859375
1638746582535515000,9.598514892578125,-0.9917144775390625,-0.0153961181640625,-0.0200042724609375
1638746582545536000,9.608535888671875,-0.9915771484375,-0.0125274658203125,-0.0213165283203125
1638746582555558000,9.618557861328124,-0.9913177490234375,-0.0105743408203125,-0.0238189697265625
1638746582565579000,9.6285791015625,-0.991790771484375,-0.0097808837890625,-0.027313232421875
1638746582575601000,9.638600830078126,-0.988922119140625,-0.0100555419921875,-0.028656005859375
1638746582585621800,9.648621826171874,-0.9891510009765625,-0.009429931640625,-0.0286407470703125
1638746582595644000,9.658643798828125,-0.988525390625,-0.0067138671875,-0.0267791748046875
1638746582605666000,9.668666015625,-0.9893341064453125,-0.0045166015625,-0.0252532958984375
1638746582615687000,9.67868701171875,-0.9899444580078125,-0.005218505859375,-0.0225677490234375
1638746582625708800,9.688708740234375,-0.990447998046875,-0.005950927734375,-0.0188140869140625
1638746582635730000,9.69872998046875,-0.9910430908203125,-0.008392333984375,-0.0155181884765625
1638746582645752000,9.708751953125,-0.9901123046875,-0.0102081298828125,-0.011962890625
1638746582655773000,9.71877294921875,-0.9886932373046875,-0.0111083984375,-0.0106964111328125
1638746582665794800,9.728794921875,-0.98663330078125,-0.0132598876953125,-0.0081634521484375
1638746582675817000,9.73881689453125,-0.9849853515625,-0.0139617919921875,-0.0067291259765625
1638746582685838000,9.748838134765625,-0.98614501953125,-0.0157928466796875,-0.0090179443359375
1638746582695860000,9.75885986328125,-0.984771728515625,-0.0135955810546875,-0.014129638671875
1638746582705880800,9.768880859375,-0.98272705078125,-0.0110321044921875,-0.0233154296875
1638746582715903000,9.778903076171876,-0.9849395751953125,-0.008056640625,-0.0337371826171875
1638746582725924000,9.788924072265624,-0.9896392822265625,-0.00518798828125,-0.0413818359375
1638746582735946000,9.798946044921875,-0.99432373046875,-0.0038299560546875,-0.0473480224609375
1638746582745966600,9.808966552734375,-0.998626708984375,-0.00506591796875,-0.048309326171875
1638746582755988500,9.818988525390624,-0.9998321533203125,-0.008758544921875,-0.041961669921875
1638746582766009600,9.829009521484375,-0.996490478515625,-0.0126190185546875,-0.034881591796875
1638746582776031500,9.839031494140626,-0.9914093017578125,-0.016876220703125,-0.026824951171875
1638746582786053600,9.8490537109375,-0.989013671875,-0.0197296142578125,-0.0195465087890625
1638746582796074800,9.85907470703125,-0.9865875244140625,-0.0211029052734375,-0.0153045654296875
1638746582806096600,9.8690966796875,-0.987335205078125,-0.0197906494140625,-0.01129150390625
1638746582816117500,9.879117431640625,-0.989715576171875,-0.0167694091796875,-0.0074615478515625
1638746582826139600,9.8891396484375,-0.9904327392578125,-0.011077880859375,-0.0065460205078125
1638746582836160800,9.899160888671876,-0.989227294921875,-0.007110595703125,-0.0072784423828125
1638746582846182700,9.9091826171875,-0.988433837890625,-0.0052642822265625,-0.0107269287109375
1638746582856203500,9.91920361328125,-0.9877471923828125,-0.0043792724609375,-0.014495849609375
1638746582866225700,9.9292255859375,-0.989990234375,-0.0057373046875,-0.0178985595703125
1638746582876247600,9.93924755859375,-0.988800048828125,-0.008636474609375,-0.021087646484375
1638746582886268700,9.9492685546875,-0.9893951416015625,-0.0113983154296875,-0.022705078125
1638746582896290600,9.95929052734375,-0.989593505859375,-0.015167236328125,-0.0209503173828125
1638746582906311400,9.9693115234375,-0.9905548095703125,-0.0187835693359375,-0.0123291015625
1638746582916333600,9.97933349609375,-0.988372802734375,-0.025115966796875,0.0019073486328125
1638746582926354700,9.989354736328124,-0.9761810302734375,-0.029571533203125,0.00323486328125
1638746582936376600,9.99937646484375,-0.9608154296875,-0.0252838134765625,-0.003875732421875
1638746582946397400,10.0093974609375,-0.964508056640625,-0.0097808837890625,-0.0202178955078125
1638746582956419600,10.019419677734374,-0.9882354736328125,0.0013580322265625,-0.0399932861328125
1638746582966441700,10.029441650390625,-1.00958251953125,0.0096282958984375,-0.0492706298828125
1638746582976462600,10.039462646484376,-1.015106201171875,0.01275634765625,-0.051116943359375
1638746582986484500,10.049484375,-1.0057220458984375,0.0062255859375,-0.0503387451171875
1638746582996505600,10.059505615234375,-0.992156982421875,0.001922607421875,-0.048248291015625
1638746583006527700,10.06952783203125,-0.9853973388671875,-0.00067138671875,-0.0442657470703125
1638746583016548600,10.079548583984375,-0.99029541015625,-0.00714111328125,-0.0388336181640625
1638746583026570500,10.089570556640625,-0.995758056640625,-0.0151519775390625,-0.0326995849609375
1638746583036592400,10.09959228515625,-0.9976348876953125,-0.0178375244140625,-0.025238037109375
1638746583046613800,10.10961376953125,-0.9982757568359375,-0.016937255859375,-0.020416259765625
1638746583056635600,10.1196357421875,-0.9959716796875,-0.0158233642578125,-0.0176544189453125
1638746583066656500,10.129656494140624,-0.9951324462890625,-0.012664794921875,-0.0176544189453125
1638746583076678400,10.139678466796875,-0.9914398193359375,-0.01080322265625,-0.0174407958984375
1638746583086699500,10.149699462890625,-0.9861602783203125,-0.0093994140625,-0.017791748046875
1638746583096721700,10.1597216796875,-0.9848480224609375,-0.0085906982421875,-0.0178985595703125
1638746583106742500,10.169742431640625,-0.9852142333984375,-0.008331298828125,-0.0202178955078125
1638746583116764700,10.1797646484375,-0.98699951171875,-0.0087738037109375,-0.0225982666015625
1638746583126785500,10.18978564453125,-0.987518310546875,-0.00970458984375,-0.02239990234375
1638746583136807700,10.1998076171875,-0.987548828125,-0.0113372802734375,-0.0217132568359375
1638746583146829600,10.20982958984375,-0.9869232177734375,-0.012054443359375,-0.0216064453125
1638746583156850700,10.2198505859375,-0.98681640625,-0.014068603515625,-0.0223236083984375
1638746583166872600,10.22987255859375,-0.985137939453125,-0.0155792236328125,-0.023223876953125
1638746583176893700,10.239893798828126,-0.987060546875,-0.01611328125,-0.022430419921875
1638746583186915600,10.24991552734375,-0.988037109375,-0.017059326171875,-0.0218658447265625
1638746583196936700,10.259936767578125,-0.9889984130859375,-0.0152740478515625,-0.020751953125
1638746583206958600,10.26995849609375,-0.9896392822265625,-0.0134124755859375,-0.0199737548828125
1638746583216980700,10.279980712890625,-0.99041748046875,-0.0116119384765625,-0.02032470703125
1638746583227001600,10.290001708984375,-0.990447998046875,-0.009857177734375,-0.0181732177734375
1638746583237023500,10.3000234375,-0.990631103515625,-0.008758544921875,-0.020263671875
1638746583247044600,10.310044677734375,-0.9896087646484375,-0.00787353515625,-0.0226593017578125
1638746583257066500,10.32006640625,-0.9894256591796875,-0.0069122314453125,-0.0239105224609375
1638746583267087600,10.330087646484374,-0.9888458251953125,-0.0058135986328125,-0.0237884521484375
1638746583277109500,10.340109619140625,-0.990447998046875,-0.00616455078125,-0.02557373046875
1638746583287130600,10.350130615234375,-0.99090576171875,-0.0052947998046875,-0.026519775390625
1638746583297152500,10.360152587890624,-0.99188232421875,-0.00567626953125,-0.0267333984375
1638746583307174700,10.370174560546875,-0.9909515380859375,-0.007781982421875,-0.0265960693359375
1638746583317195800,10.38019580078125,-0.9912872314453125,-0.00830078125,-0.0271759033203125
1638746583327217700,10.3902177734375,-0.9895477294921875,-0.0096588134765625,-0.028656005859375
1638746583337238500,10.400238525390625,-0.990234375,-0.010955810546875,-0.02667236328125
1638746583347260700,10.4102607421875,-0.9903717041015625,-0.01177978515625,-0.0257415771484375
1638746583357281800,10.42028173828125,-0.9906463623046875,-0.01043701171875,-0.0247802734375
1638746583367303700,10.4303037109375,-0.991058349609375,-0.0115203857421875,-0.023406982421875
1638746583377324500,10.440324462890626,-0.9908905029296875,-0.0124053955078125,-0.0230865478515625
1638746583387346400,10.450346435546875,-0.9899444580078125,-0.011322021484375,-0.0237579345703125
1638746583397367800,10.460367919921875,-0.98858642578125,-0.010894775390625,-0.0247955322265625
1638746583407389700,10.4703896484375,-0.9903564453125,-0.01043701171875,-0.025421142578125
1638746583417411600,10.48041162109375,-0.990692138671875,-0.009735107421875,-0.023895263671875
1638746583427432400,10.490432373046875,-0.9890289306640625,-0.0093536376953125,-0.0193939208984375
1638746583437454600,10.50045458984375,-0.987884521484375,-0.0090484619140625,-0.0172119140625
1638746583447475700,10.510475830078125,-0.985076904296875,-0.007232666015625,-0.0124053955078125
1638746583457497600,10.52049755859375,-0.9821929931640625,-0.00653076171875,-0.0082855224609375
1638746583467518500,10.5305185546875,-0.9818572998046875,-0.01080322265625,-0.0076446533203125
1638746583477540600,10.54054052734375,-0.9829254150390625,-0.017791748046875,-0.00909423828125
1638746583487562800,10.550562744140626,-0.98712158203125,-0.02239990234375,-0.01373291015625
1638746583497583600,10.56058349609375,-0.9905548095703125,-0.021209716796875,-0.019989013671875
1638746583507605500,10.57060546875,-0.9943389892578125,-0.0194854736328125,-0.0233306884765625
1638746583517626600,10.580626708984376,-0.9942474365234375,-0.0225982666015625,-0.0252532958984375
1638746583527648800,10.590648681640625,-0.9854278564453125,-0.0253143310546875,-0.024810791015625
1638746583537669600,10.600669677734375,-0.975830078125,-0.025909423828125,-0.0257415771484375
1638746583547691500,10.61069140625,-0.971771240234375,-0.0228729248046875,-0.031768798828125
1638746583557712600,10.620712646484375,-0.9755401611328125,-0.0131988525390625,-0.0345458984375
1638746583567734800,10.63073486328125,-0.9844512939453125,-0.00762939453125,-0.035980224609375
1638746583577756700,10.640756591796874,-0.9921875,-0.002899169921875,-0.03619384765625
1638746583587777500,10.650777587890625,-0.9927825927734375,0.00067138671875,-0.0388336181640625
1638746583597799400,10.66079931640625,-0.99139404296875,0.0016021728515625,-0.032806396484375
1638746583607820500,10.670820556640624,-0.9921417236328125,-0.002716064453125,-0.026763916015625
1638746583617842700,10.6808427734375,-0.993408203125,-0.0037689208984375,-0.03155517578125
1638746583627863600,10.690863525390625,-0.9955291748046875,-0.0013580322265625,-0.0351715087890625
1638746583637885700,10.7008857421875,-0.9964141845703125,0.002593994140625,-0.0360565185546875
1638746583647906600,10.710906494140625,-0.9971160888671875,0.0022735595703125,-0.0401763916015625
1638746583657928700,10.7209287109375,-0.99774169921875,0.00494384765625,-0.043365478515625
1638746583667950600,10.73095068359375,-0.997955322265625,0.0101776123046875,-0.0427093505859375
1638746583677971700,10.7409716796875,-0.9984283447265625,0.0124053955078125,-0.03997802734375
1638746583687993600,10.75099365234375,-0.9936981201171875,0.01385498046875,-0.0423736572265625
1638746583698014500,10.761014404296875,-0.9922332763671875,0.019287109375,-0.0443878173828125
1638746583708036600,10.77103662109375,-0.9969635009765625,0.0214996337890625,-0.0449981689453125
1638746583718057700,10.7810576171875,-1.00152587890625,0.0165557861328125,-0.043365478515625
1638746583728079600,10.79107958984375,-0.998626708984375,0.0054473876953125,-0.0364227294921875
1638746583738101000,10.80110107421875,-0.9905242919921875,-0.009765625,-0.032562255859375
1638746583748123100,10.811123046875,-0.9848175048828125,-0.02191162109375,-0.0310211181640625
1638746583758145000,10.82114501953125,-0.9854278564453125,-0.02716064453125,-0.021209716796875
1638746583768166100,10.831166259765626,-0.986358642578125,-0.02362060546875,-0.0184173583984375
1638746583778188000,10.84118798828125,-0.9886016845703125,-0.0189208984375,-0.017486572265625
1638746583788209200,10.851209228515625,-0.9934234619140625,-0.0186767578125,-0.0134429931640625
1638746583798231000,10.86123095703125,-0.9938812255859375,-0.020294189453125,-0.015594482421875
1638746583808252200,10.871252197265624,-0.9887237548828125,-0.0182647705078125,-0.028106689453125
1638746583818274000,10.881274169921875,-0.98614501953125,-0.012054443359375,-0.03948974609375
1638746583828295000,10.891294921875,-0.9898834228515625,-0.0140228271484375,-0.0468597412109375
1638746583838317000,10.901317138671875,-0.994720458984375,-0.021728515625,-0.0503082275390625
1638746583848339200,10.911339111328125,-0.995880126953125,-0.030242919921875,-0.0389556884765625
1638746583858360000,10.921360107421876,-0.9936981201171875,-0.04193115234375,-0.032257080078125
1638746583868382200,10.93138232421875,-0.984954833984375,-0.0450286865234375,-0.026153564453125
1638746583878403000,10.941403076171875,-0.978302001953125,-0.0388946533203125,-0.0159149169921875
1638746583888425200,10.95142529296875,-0.981109619140625,-0.0325775146484375,-0.011871337890625
1638746583898446000,10.961446044921875,-0.9829559326171875,-0.028778076171875,-0.009307861328125
1638746583908468000,10.971468017578125,-0.9824371337890625,-0.0272369384765625,-0.0059661865234375
1638746583918489300,10.9814892578125,-0.9778594970703125,-0.028656005859375,-0.0003509521484375
1638746583928511200,10.99151123046875,-0.9771881103515625,-0.028839111328125,0.0072479248046875
1638746583938533000,11.001533203125,-0.981536865234375,-0.0269622802734375,0.0098419189453125
1638746583948554000,11.011553955078124,-0.985382080078125,-0.0207366943359375,0.0093231201171875
1638746583958576000,11.021576171875,-0.9892578125,-0.01824951171875,0.006805419921875
1638746583968597200,11.03159716796875,-0.9897918701171875,-0.015594482421875,-0.0024566650390625
1638746583978619100,11.041619140625,-0.99163818359375,-0.01043701171875,-0.010772705078125
1638746583988640000,11.051639892578125,-0.9947357177734375,-0.011688232421875,-0.0180206298828125
1638746583998662000,11.061661865234376,-0.9920654296875,-0.0150604248046875,-0.0301666259765625
1638746584008683300,11.071683349609375,-0.993377685546875,-0.0130462646484375,-0.04156494140625
1638746584018705200,11.081705078125,-1.0010986328125,-0.0083160400390625,-0.050262451171875
1638746584028726000,11.09172607421875,-1.0052337646484375,-0.0079193115234375,-0.0519561767578125
1638746584038748000,11.101747802734375,-1.0032958984375,-0.017303466796875,-0.0483551025390625
1638746584048770300,11.111770263671875,-0.9953155517578125,-0.0264892578125,-0.0413818359375
1638746584058791200,11.121791259765626,-0.9865264892578125,-0.0244598388671875,-0.038909912109375
1638746584068813000,11.13181298828125,-0.98541259765625,-0.023895263671875,-0.0396575927734375
1638746584078834200,11.141834228515625,-0.9878997802734375,-0.0229034423828125,-0.0391845703125
1638746584088856300,11.151856201171874,-0.989532470703125,-0.017578125,-0.047119140625
1638746584098877200,11.161877197265625,-0.992034912109375,-0.0117645263671875,-0.066558837890625
1638746584108899000,11.171899169921875,-1.0013580322265625,-0.014434814453125,-0.0908050537109375
1638746584118921000,11.1819208984375,-1.009185791015625,-0.0123748779296875,-0.102203369140625
1638746584128942000,11.191942138671875,-1.01080322265625,0.000030517578125,-0.094329833984375
1638746584138964200,11.201964111328126,-1.0025177001953125,0.011962890625,-0.070068359375
1638746584148985000,11.211985107421874,-0.989715576171875,0.012939453125,-0.046844482421875
1638746584159007000,11.222007080078125,-0.982208251953125,0.008209228515625,-0.0282440185546875
1638746584169028000,11.232028076171876,-0.9835968017578125,0.0023040771484375,-0.0108184814453125
1638746584179050200,11.24205029296875,-0.9903106689453125,-0.0057373046875,0.0038604736328125
1638746584189071000,11.252071044921875,-0.9941558837890625,-0.01336669921875,0.0119476318359375
1638746584199093000,11.262093017578126,-0.992218017578125,-0.018035888671875,0.0156097412109375
1638746584209114000,11.272114013671874,-0.9891510009765625,-0.0212860107421875,0.01165771484375
1638746584219136000,11.282135986328125,-0.987030029296875,-0.023406982421875,0.0040130615234375
1638746584229158100,11.292158203125,-0.98291015625,-0.0225067138671875,-0.0047607421875
1638746584239179000,11.302178955078125,-0.97998046875,-0.02032470703125,-0.0127105712890625
1638746584249201200,11.312201171875,-0.98052978515625,-0.0163421630859375,-0.01422119140625
1638746584259222000,11.322221923828126,-0.9811859130859375,-0.00653076171875,-0.011932373046875
1638746584269244200,11.332244140625,-0.9824981689453125,0.0023193359375,-0.007415771484375
1638746584279265300,11.342265380859375,-0.9833526611328125,0.00286865234375,-0.0024261474609375
1638746584289287200,11.352287109375,-0.982177734375,-0.002227783203125,0.0005340576171875
1638746584299309000,11.36230908203125,-0.97760009765625,-0.0064544677734375,0.000152587890625
1638746584309330000,11.372329833984375,-0.9785003662109375,-0.0112457275390625,-0.0036773681640625
1638746584319352000,11.38235205078125,-0.981201171875,-0.0169219970703125,-0.0101776123046875
1638746584329373200,11.392373291015625,-0.9866943359375,-0.02288818359375,-0.01910400390625
1638746584339395000,11.40239501953125,-0.9907073974609375,-0.0254974365234375,-0.025848388671875
1638746584349416000,11.412416015625,-0.991729736328125,-0.025360107421875,-0.0311431884765625
1638746584359438000,11.42243798828125,-0.9918212890625,-0.020416259765625,-0.03497314453125
1638746584369459200,11.432459228515626,-0.9912109375,-0.0159454345703125,-0.037384033203125
1638746584379481000,11.442481201171875,-0.9912109375,-0.011444091796875,-0.038726806640625
1638746584389502000,11.452501953125,-0.989288330078125,-0.0093231201171875,-0.04046630859375
1638746584399524000,11.462524169921876,-0.9912872314453125,-0.0089874267578125,-0.0394439697265625
1638746584409546200,11.472546142578125,-0.993377685546875,-0.00958251953125,-0.0386962890625
1638746584419567000,11.482567138671875,-0.9958953857421875,-0.012725830078125,-0.03741455078125
1638746584429589000,11.492589111328124,-0.9962005615234375,-0.0179443359375,-0.032867431640625
1638746584439610000,11.502610107421875,-0.996795654296875,-0.0218353271484375,-0.0287933349609375
1638746584449632300,11.51263232421875,-0.99444580078125,-0.025482177734375,-0.0251617431640625
1638746584459653000,11.522653076171874,-0.9923858642578125,-0.0261993408203125,-0.02178955078125
1638746584469675000,11.532675048828125,-0.991424560546875,-0.02490234375,-0.020660400390625
1638746584479696100,11.542696044921875,-0.9921417236328125,-0.0230560302734375,-0.018951416015625
1638746584489718300,11.55271826171875,-0.9915618896484375,-0.0176544189453125,-0.0172576904296875
1638746584499740200,11.562740234375,-0.9901580810546875,-0.01348876953125,-0.0172882080078125
1638746584509761000,11.572760986328126,-0.989288330078125,-0.0107421875,-0.01678466796875
1638746584519783000,11.582782958984374,-0.9854583740234375,-0.0101470947265625,-0.016143798828125
1638746584529804000,11.592803955078125,-0.9844512939453125,-0.0095672607421875,-0.017791748046875
1638746584539826200,11.602826171875,-0.9858551025390625,-0.01055908203125,-0.0164947509765625
1638746584549847000,11.612846923828124,-0.9868927001953125,-0.0130462646484375,-0.018463134765625
1638746584559869000,11.622868896484375,-0.988067626953125,-0.0154266357421875,-0.020782470703125
1638746584569890000,11.63289013671875,-0.9896392822265625,-0.0173797607421875,-0.0213775634765625
1638746584579912200,11.642912109375,-0.9906158447265625,-0.0158843994140625,-0.024017333984375
1638746584589934000,11.65293408203125,-0.989654541015625,-0.01513671875,-0.0236968994140625
1638746584599955200,11.662955078125,-0.98944091796875,-0.0117645263671875,-0.025299072265625
1638746584609977000,11.67297705078125,-0.9899139404296875,-0.00714111328125,-0.024871826171875
1638746584619998200,11.682998291015625,-0.9880828857421875,-0.0062408447265625,-0.0230865478515625
1638746584630020000,11.69302001953125,-0.9872283935546875,-0.006683349609375,-0.022491455078125
1638746584640041200,11.703041259765625,-0.988128662109375,-0.00634765625,-0.0222930908203125
1638746584650063000,11.71306298828125,-0.9892120361328125,-0.0067901611328125,-0.0225830078125
1638746584660084000,11.723083984375,-0.9899749755859375,-0.008148193359375,-0.0215911865234375
1638746584670106000,11.733106201171875,-0.9900665283203125,-0.01092529296875,-0.0219879150390625
1638746584680128000,11.7431279296875,-0.99005126953125,-0.0132598876953125,-0.0220794677734375
1638746584690149000,11.753149169921874,-0.9891815185546875,-0.015472412109375,-0.0211181640625
1638746584700171000,11.7631708984375,-0.9890899658203125,-0.016845703125,-0.020416259765625
1638746584710192000,11.773192138671876,-0.9875335693359375,-0.0164642333984375,-0.0219268798828125
1638746584720214000,11.783214111328125,-0.9879150390625,-0.0167999267578125,-0.02349853515625
1638746584730235100,11.793235107421875,-0.989288330078125,-0.01763916015625,-0.021881103515625
1638746584740257300,11.80325732421875,-0.9906158447265625,-0.017181396484375,-0.020660400390625
1638746584750278100,11.813278076171875,-0.9912261962890625,-0.0174713134765625,-0.0201263427734375
1638746584760300000,11.823300048828125,-0.9900665283203125,-0.0173797607421875,-0.0185394287109375
1638746584770322200,11.833322265625,-0.9903564453125,-0.0155792236328125,-0.0196685791015625
1638746584780343300,11.84334326171875,-0.9900360107421875,-0.0138702392578125,-0.020050048828125
1638746584790365200,11.853365234375,-0.990081787109375,-0.0118865966796875,-0.0206298828125
1638746584800386300,11.86338623046875,-0.9909515380859375,-0.010498046875,-0.02142333984375
1638746584810408200,11.873408203125,-0.9905242919921875,-0.011474609375,-0.0231170654296875
1638746584820429000,11.883428955078125,-0.9897308349609375,-0.0140533447265625,-0.0281524658203125
1638746584830451200,11.893451171875,-0.98773193359375,-0.0136566162109375,-0.0325927734375
1638746584840472300,11.903472412109375,-0.989044189453125,-0.0122528076171875,-0.03436279296875
1638746584850494200,11.913494140625,-0.9920806884765625,-0.0140533447265625,-0.02996826171875
1638746584860516000,11.92351611328125,-0.989532470703125,-0.019744873046875,-0.0264739990234375
1638746584870537200,11.933537109375,-0.9859466552734375,-0.0215911865234375,-0.023040771484375
1638746584880559000,11.94355908203125,-0.985137939453125,-0.0211944580078125,-0.02105712890625
1638746584890580200,11.953580322265625,-0.9869842529296875,-0.018096923828125,-0.018035888671875
1638746584900602000,11.96360205078125,-0.98876953125,-0.0133819580078125,-0.015838623046875
1638746584910623000,11.973623046875,-0.9911346435546875,-0.0110321044921875,-0.0134735107421875
1638746584920645000,11.98364501953125,-0.99169921875,-0.0092620849609375,-0.0134429931640625
1638746584930666200,11.993666259765625,-0.989044189453125,-0.007659912109375,-0.0146026611328125
1638746584940688100,12.003688232421876,-0.987274169921875,-0.00689697265625,-0.0164947509765625
1638746584950710300,12.013710205078125,-0.9880828857421875,-0.0087432861328125,-0.0225830078125
1638746584960731400,12.0237314453125,-0.9887847900390625,-0.01141357421875,-0.0271453857421875
1638746584970753300,12.033753173828124,-0.9899139404296875,-0.01458740234375,-0.02874755859375
1638746584980774100,12.043774169921875,-0.9908447265625,-0.018280029296875,-0.0294952392578125
1638746584990796000,12.053796142578125,-0.989288330078125,-0.0211639404296875,-0.0286102294921875
1638746585000817400,12.0638173828125,-0.987213134765625,-0.0193634033203125,-0.02581787109375
1638746585010839300,12.07383935546875,-0.9882354736328125,-0.01739501953125,-0.022186279296875
1638746585020860200,12.083860107421875,-0.9869384765625,-0.0142059326171875,-0.0215911865234375
1638746585030882000,12.093882080078124,-0.9871978759765625,-0.010498046875,-0.018157958984375
1638746585040904200,12.103904296875,-0.9913177490234375,-0.012115478515625,-0.0149688720703125
1638746585050925300,12.11392529296875,-0.993804931640625,-0.013946533203125,-0.0183563232421875
1638746585060947200,12.123947265625,-0.989715576171875,-0.01251220703125,-0.0224151611328125
1638746585070968000,12.133968017578125,-0.9898834228515625,-0.0097808837890625,-0.02752685546875
1638746585080990000,12.143989990234376,-0.9935760498046875,-0.0090484619140625,-0.031829833984375
1638746585091011300,12.15401123046875,-0.9948883056640625,-0.007293701171875,-0.037750244140625
1638746585101033200,12.164033203125,-0.9927520751953125,-0.0062408447265625,-0.039947509765625
1638746585111054000,12.17405419921875,-0.991973876953125,-0.0075225830078125,-0.03759765625
1638746585121076200,12.184076171875,-0.9924468994140625,-0.008758544921875,-0.037689208984375
1638746585131097000,12.19409716796875,-0.9891815185546875,-0.00897216796875,-0.0345916748046875
1638746585141119200,12.204119140625,-0.9870147705078125,-0.010406494140625,-0.032806396484375
1638746585151141000,12.21414111328125,-0.9842987060546875,-0.012420654296875,-0.0295867919921875
1638746585161162200,12.224162353515625,-0.9843597412109375,-0.0128631591796875,-0.026885986328125
1638746585171184400,12.234184326171874,-0.987274169921875,-0.01397705078125,-0.0240325927734375
1638746585181205200,12.244205322265625,-0.989532470703125,-0.0146331787109375,-0.025909423828125
1638746585191227100,12.25422705078125,-0.99346923828125,-0.014190673828125,-0.0281219482421875
1638746585201248300,12.264248291015624,-0.9957122802734375,-0.0154876708984375,-0.031494140625
1638746585211270100,12.274270263671875,-0.9951629638671875,-0.01416015625,-0.0355224609375
1638746585221292300,12.284292236328126,-0.994873046875,-0.01153564453125,-0.0385894775390625
1638746585231313200,12.294313232421874,-0.995574951171875,-0.0085601806640625,-0.0438079833984375
1638746585241335000,12.3043349609375,-0.996917724609375,-0.005950927734375,-0.0443115234375
1638746585251356200,12.314356201171876,-0.9991455078125,-0.004241943359375,-0.04083251953125
1638746585261378300,12.32437841796875,-1.0006561279296875,-0.0025634765625,-0.0276336669921875
1638746585271399200,12.334399169921875,-0.9965362548828125,-0.00372314453125,-0.022064208984375
1638746585281421300,12.34442138671875,-0.9876861572265625,-0.0049591064453125,-0.020416259765625
1638746585291442200,12.354442138671875,-0.985382080078125,-0.009033203125,-0.01849365234375
1638746585301464000,12.364464111328125,-0.9847412109375,-0.0142822265625,-0.017608642578125
1638746585311486200,12.374486328125,-0.98272705078125,-0.0146636962890625,-0.0196685791015625
1638746585321507300,12.38450732421875,-0.9855804443359375,-0.0142822265625,-0.020965576171875
1638746585331529200,12.394529296875,-0.9932403564453125,-0.019378662109375,-0.02142333984375
1638746585341550000,12.404550048828124,-0.9937744140625,-0.02239990234375,-0.0183563232421875
1638746585351572200,12.414572265625,-0.9884185791015625,-0.0235748291015625,-0.0176544189453125
1638746585361593300,12.42459326171875,-0.9848480224609375,-0.0266571044921875,-0.01934814453125
1638746585371615200,12.434615234375,-0.9815673828125,-0.0235443115234375,-0.0189208984375
1638746585381636000,12.444635986328125,-0.982025146484375,-0.018951416015625,-0.0174560546875
1638746585391658000,12.454657958984376,-0.983978271484375,-0.018768310546875,-0.018157958984375
1638746585401680100,12.46468017578125,-0.9851531982421875,-0.0160675048828125,-0.018310546875
1638746585411701200,12.474701171875,-0.9866943359375,-0.0138702392578125,-0.0202789306640625
1638746585421723100,12.48472314453125,-0.9891510009765625,-0.01104736328125,-0.020111083984375
1638746585431744000,12.494743896484374,-0.9888153076171875,-0.0087432861328125,-0.02215576171875
1638746585441766100,12.50476611328125,-0.9904022216796875,-0.0098724365234375,-0.029510498046875
1638746585451787300,12.514787353515626,-0.9912567138671875,-0.0120086669921875,-0.042816162109375
1638746585461809200,12.52480908203125,-0.9911041259765625,-0.0111846923828125,-0.0590972900390625
1638746585471830000,12.534830078125,-0.99249267578125,-0.006927490234375,-0.0649566650390625
1638746585481852400,12.544852294921874,-0.993988037109375,-0.0032958984375,-0.055511474609375
1638746585491873300,12.554873291015625,-0.99273681640625,-0.0018768310546875,-0.034332275390625
1638746585501895200,12.564895263671875,-0.9911651611328125,-0.0010528564453125,-0.009552001953125
1638746585511917000,12.5749169921875,-0.9918060302734375,-0.0076446533203125,0.0110931396484375
1638746585521938200,12.584938232421875,-0.9922637939453125,-0.01568603515625,0.021331787109375
1638746585531960300,12.594960205078126,-0.992828369140625,-0.0174713134765625,0.0204315185546875
1638746585541981200,12.604981201171874,-0.9936676025390625,-0.0180816650390625,0.0085906982421875
1638746585552003000,12.615003173828125,-0.9918670654296875,-0.01727294921875,-0.0108184814453125
1638746585562024200,12.625024169921875,-0.9899444580078125,-0.01739501953125,-0.0266571044921875
1638746585572046300,12.63504638671875,-0.986114501953125,-0.0171966552734375,-0.039276123046875
1638746585582067200,12.645067138671875,-0.98492431640625,-0.013671875,-0.0453338623046875
1638746585592089000,12.655089111328126,-0.9850921630859375,-0.00897216796875,-0.0445709228515625
1638746585602111000,12.665111083984375,-0.9873809814453125,-0.0064849853515625,-0.0393829345703125
1638746585612132000,12.675132080078125,-0.98822021484375,-0.006500244140625,-0.0308074951171875
1638746585622154200,12.685154296875,-0.98834228515625,-0.00677490234375,-0.021881103515625
1638746585632175000,12.695175048828125,-0.9889678955078125,-0.008453369140625,-0.0172576904296875
1638746585642197200,12.705197265625,-0.98809814453125,-0.0103759765625,-0.01470947265625
1638746585652218000,12.715218017578126,-0.9894561767578125,-0.013397216796875,-0.013824462890625
1638746585662240300,12.725240234375,-0.9902191162109375,-0.0164031982421875,-0.0140228271484375
1638746585672261000,12.73526123046875,-0.9900360107421875,-0.01849365234375,-0.0162506103515625
1638746585682283300,12.745283203125,-0.9894256591796875,-0.0182342529296875,-0.0187835693359375
1638746585692305200,12.75530517578125,-0.989654541015625,-0.017547607421875,-0.022369384765625
1638746585702326300,12.765326171875,-0.989776611328125,-0.016845703125,-0.024444580078125
1638746585712348200,12.77534814453125,-0.9898834228515625,-0.014434814453125,-0.0241851806640625
