time,seconds_elapsed,z,y,x
1638746695579836000,0.0048359375,-0.9919281005859375,-0.0597076416015625,0.0316009521484375
1638746695589857800,0.01485791015625,-0.989501953125,-0.059967041015625,0.031280517578125
1638746695599879000,0.02487890625,-0.9896697998046875,-0.06195068359375,0.0317535400390625
1638746695609901000,0.034901123046875,-0.9901885986328125,-0.0614013671875,0.031494140625
1638746695619922000,0.044921875,-0.99346923828125,-0.0624847412109375,0.0289459228515625
1638746695629943800,0.05494384765625,-0.9934234619140625,-0.055938720703125,0.030059814453125
1638746695639965000,0.06496484375,-0.9905853271484375,-0.0448760986328125,0.0211029052734375
1638746695649987000,0.074987060546875,-0.996124267578125,-0.0619049072265625,0.0316162109375
1638746695660008000,0.085008056640625,-1.0016632080078125,-0.0670623779296875,0.0337982177734375
1638746695670029800,0.09502978515625,-1.0060577392578125,-0.060943603515625,0.031097412109375
1638746695680051000,0.105051025390625,-1.0009002685546875,-0.0588836669921875,0.02984619140625
1638746695690072800,0.11507275390625,-0.97869873046875,-0.04931640625,0.037689208984375
1638746695700093700,0.12509375,-0.959625244140625,-0.0678863525390625,0.0155487060546875
1638746695710115000,0.135114990234375,-0.961029052734375,-0.0712890625,0.01824951171875
1638746695720137000,0.145136962890625,-0.9792938232421875,-0.0674896240234375,0.0280914306640625
1638746695730157800,0.15515771484375,-0.990325927734375,-0.0687408447265625,0.02227783203125
1638746695740179700,0.1651796875,-0.9870758056640625,-0.065673828125,0.0214080810546875
1638746695750200800,0.175200927734375,-0.9828033447265625,-0.0634002685546875,0.01751708984375
1638746695760223000,0.185222900390625,-0.981903076171875,-0.0640411376953125,0.018157958984375
1638746695770243800,0.195243896484375,-0.9843902587890625,-0.065093994140625,0.0199432373046875
1638746695780265700,0.205265625,-0.98651123046875,-0.0647735595703125,0.0208892822265625
1638746695790286800,0.215286865234375,-0.988128662109375,-0.0627288818359375,0.0211334228515625
1638746695800309000,0.22530908203125,-0.98834228515625,-0.0644073486328125,0.0207366943359375
1638746695810329900,0.235329833984375,-0.9882049560546875,-0.0642852783203125,0.0203857421875
1638746695820351700,0.245351806640625,-0.988128662109375,-0.065155029296875,0.0208587646484375
1638746695830372900,0.255372802734375,-0.9874267578125,-0.0648193359375,0.0211029052734375
1638746695840395000,0.26539501953125,-0.9878997802734375,-0.0646820068359375,0.0199127197265625
1638746695850415900,0.275415771484375,-0.9869232177734375,-0.064971923828125,0.019775390625
1638746695860438500,0.2854384765625,-0.987274169921875,-0.0650482177734375,0.01959228515625
1638746695870459600,0.295459716796875,-0.9869384765625,-0.06549072265625,0.0201873779296875
1638746695880481800,0.305481689453125,-0.987701416015625,-0.064666748046875,0.0203857421875
1638746695890502700,0.315502685546875,-0.987762451171875,-0.0641937255859375,0.0211944580078125
1638746695900524500,0.325524658203125,-0.9886016845703125,-0.0652008056640625,0.021392822265625
1638746695910545700,0.335545654296875,-0.988037109375,-0.0638580322265625,0.0207977294921875
1638746695920567600,0.345567626953125,-0.988189697265625,-0.06353759765625,0.020172119140625
1638746695930588700,0.355588623046875,-0.98834228515625,-0.0626373291015625,0.0199737548828125
1638746695940610600,0.365610595703125,-0.9873504638671875,-0.06298828125,0.0200653076171875
1638746695950631700,0.375631591796875,-0.98809814453125,-0.0633087158203125,0.0196533203125
1638746695960653600,0.385653564453125,-0.9879302978515625,-0.0626220703125,0.0179595947265625
1638746695970674400,0.39567431640625,-0.987823486328125,-0.063934326171875,0.0186004638671875
1638746695980696600,0.405696533203125,-0.9885711669921875,-0.0636138916015625,0.0185699462890625
1638746695990717700,0.4157177734375,-0.98895263671875,-0.0640716552734375,0.0191497802734375
1638746696000739600,0.425739501953125,-0.987457275390625,-0.0649871826171875,0.0190277099609375
1638746696010760400,0.435760498046875,-0.988067626953125,-0.064361572265625,0.019439697265625
1638746696020782600,0.445782470703125,-0.9875640869140625,-0.0651092529296875,0.0195465087890625
1638746696030803700,0.4558037109375,-0.987518310546875,-0.0637969970703125,0.0199737548828125
1638746696040825600,0.46582568359375,-0.98748779296875,-0.0648040771484375,0.019317626953125
1638746696050846500,0.475846435546875,-0.9871368408203125,-0.0645294189453125,0.018463134765625
1638746696060868600,0.48586865234375,-0.9871368408203125,-0.0648345947265625,0.0182342529296875
1638746696070889700,0.4958896484375,-0.9879913330078125,-0.06494140625,0.0186920166015625
1638746696080910600,0.50591064453125,-0.9876708984375,-0.0640869140625,0.0191192626953125
1638746696090932500,0.515932373046875,-0.98779296875,-0.063995361328125,0.0193328857421875
1638746696100953600,0.52595361328125,-0.988372802734375,-0.0648193359375,0.018829345703125
1638746696110975500,0.5359755859375,-0.988616943359375,-0.0645599365234375,0.0187530517578125
1638746696120996600,0.54599658203125,-0.987945556640625,-0.0638427734375,0.018707275390625
1638746696131018800,0.556018798828125,-0.98724365234375,-0.0638580322265625,0.0188751220703125
1638746696141039600,0.56603955078125,-0.987823486328125,-0.0635986328125,0.01873779296875
1638746696151061500,0.5760615234375,-0.987945556640625,-0.063812255859375,0.0179901123046875
1638746696161082600,0.58608251953125,-0.9885101318359375,-0.0635833740234375,0.0182037353515625
1638746696171104800,0.596104736328125,-0.9877777099609375,-0.0629425048828125,0.0175628662109375
1638746696181125600,0.606125732421875,-0.9882659912109375,-0.0628204345703125,0.01812744140625
1638746696191147500,0.6161474609375,-0.988555908203125,-0.0632476806640625,0.0182647705078125
1638746696201168600,0.626168701171875,-0.987640380859375,-0.0627593994140625,0.0176849365234375
1638746696211190800,0.636190673828125,-0.987335205078125,-0.062957763671875,0.0186767578125
1638746696221211600,0.646211669921875,-0.988250732421875,-0.063507080078125,0.018035888671875
1638746696231233500,0.656233642578125,-0.987823486328125,-0.0640716552734375,0.017852783203125
1638746696241254700,0.666254638671875,-0.9872283935546875,-0.064239501953125,0.0174102783203125
1638746696251276800,0.67627685546875,-0.987579345703125,-0.0638885498046875,0.01708984375
1638746696261297700,0.686297607421875,-0.9884033203125,-0.063995361328125,0.016876220703125
1638746696271319600,0.696319580078125,-0.98846435546875,-0.0644378662109375,0.017425537109375
1638746696281340700,0.706340576171875,-0.9891510009765625,-0.064361572265625,0.01788330078125
1638746696291362600,0.716362548828125,-0.98828125,-0.064361572265625,0.018218994140625
1638746696301383400,0.726383544921875,-0.987884521484375,-0.063232421875,0.01837158203125
1638746696311405600,0.736405517578125,-0.98797607421875,-0.062164306640625,0.0191802978515625
1638746696321426700,0.7464267578125,-0.988006591796875,-0.06439208984375,0.0198211669921875
1638746696331448600,0.756448486328125,-0.9871673583984375,-0.0644683837890625,0.0194091796875
1638746696341469400,0.766469482421875,-0.9868011474609375,-0.0645751953125,0.0193023681640625
1638746696351491600,0.77649169921875,-0.987518310546875,-0.0628204345703125,0.0196533203125
1638746696361512700,0.7865126953125,-0.9883575439453125,-0.0625152587890625,0.019073486328125
1638746696371534600,0.79653466796875,-0.987030029296875,-0.0631103515625,0.0188446044921875
1638746696381555500,0.806555419921875,-0.9864959716796875,-0.0642852783203125,0.0175628662109375
1638746696391577600,0.81657763671875,-0.9875640869140625,-0.064208984375,0.0157318115234375
1638746696401598700,0.8265986328125,-0.98736572265625,-0.0642852783203125,0.0159454345703125
1638746696411620600,0.83662060546875,-0.9881591796875,-0.0643310546875,0.0155487060546875
1638746696421641500,0.846641357421875,-0.989013671875,-0.064300537109375,0.01544189453125
1638746696431662600,0.85666259765625,-0.98883056640625,-0.064697265625,0.016021728515625
1638746696441684700,0.866684814453125,-0.987091064453125,-0.065185546875,0.0160675048828125
1638746696451705600,0.87670556640625,-0.9866790771484375,-0.065460205078125,0.0152130126953125
1638746696461727700,0.886727783203125,-0.98724365234375,-0.0641326904296875,0.0153656005859375
1638746696471748600,0.89674853515625,-0.988525390625,-0.06390380859375,0.016357421875
1638746696481770500,0.9067705078125,-0.9883575439453125,-0.06329345703125,0.017547607421875
1638746696491791600,0.91679150390625,-0.9887237548828125,-0.0625762939453125,0.01708984375
1638746696501813800,0.926813720703125,-0.988616943359375,-0.062347412109375,0.0153961181640625
1638746696511834600,0.936834716796875,-0.9884185791015625,-0.063323974609375,0.014495849609375
1638746696521856500,0.9468564453125,-0.9887542724609375,-0.0640716552734375,0.015228271484375
1638746696531877600,0.956877685546875,-0.98883056640625,-0.0629425048828125,0.0145721435546875
1638746696541899800,0.966899658203125,-0.9876708984375,-0.064361572265625,0.014190673828125
1638746696551920600,0.976920654296875,-0.987701416015625,-0.06536865234375,0.014190673828125
1638746696561942500,0.986942626953125,-0.987335205078125,-0.064300537109375,0.014404296875
1638746696571963600,0.996963623046875,-0.98583984375,-0.0663604736328125,0.015899658203125
1638746696581985800,1.00698583984375,-0.9872894287109375,-0.0657806396484375,0.015380859375
1638746696592006700,1.017006591796875,-0.9889984130859375,-0.0652313232421875,0.01702880859375
1638746696602028500,1.027028564453125,-0.9892425537109375,-0.06494140625,0.0174560546875
1638746696612049700,1.037049560546875,-0.988616943359375,-0.0645294189453125,0.0178070068359375
1638746696622071600,1.047071533203125,-0.9873199462890625,-0.0651092529296875,0.0184478759765625
1638746696632092700,1.0570927734375,-0.988311767578125,-0.06243896484375,0.01788330078125
1638746696642114600,1.067114501953125,-0.98876953125,-0.0608062744140625,0.019195556640625
1638746696652135700,1.0771357421875,-0.986968994140625,-0.0630645751953125,0.0187225341796875
1638746696662157600,1.087157470703125,-0.985076904296875,-0.06427001953125,0.0177459716796875
1638746696672178400,1.097178466796875,-0.9843597412109375,-0.0660247802734375,0.0165557861328125
1638746696682200600,1.10720068359375,-0.9843597412109375,-0.064483642578125,0.015289306640625
1638746696692221700,1.1172216796875,-0.987213134765625,-0.065521240234375,0.014617919921875
1638746696702243600,1.12724365234375,-0.9901123046875,-0.068115234375,0.0144500732421875
1638746696712264400,1.137264404296875,-0.991241455078125,-0.06884765625,0.01422119140625
1638746696722286600,1.14728662109375,-0.990325927734375,-0.067108154296875,0.015106201171875
1638746696732307700,1.1573076171875,-0.98968505859375,-0.0660247802734375,0.0153656005859375
1638746696742328600,1.16732861328125,-0.9882354736328125,-0.0634918212890625,0.0145721435546875
1638746696752350500,1.1773505859375,-0.988128662109375,-0.061187744140625,0.015411376953125
1638746696762371600,1.18737158203125,-0.9875030517578125,-0.0592803955078125,0.0160980224609375
1638746696772393700,1.197393798828125,-0.988677978515625,-0.0584259033203125,0.0161590576171875
1638746696782414600,1.20741455078125,-0.9894866943359375,-0.058441162109375,0.016876220703125
1638746696792436500,1.2174365234375,-0.98809814453125,-0.0601043701171875,0.016754150390625
1638746696802457600,1.22745751953125,-0.9875335693359375,-0.0618743896484375,0.0165557861328125
1638746696812479500,1.2374794921875,-0.9878387451171875,-0.0642852783203125,0.0164947509765625
1638746696822500600,1.24750048828125,-0.9872894287109375,-0.0641326904296875,0.0155487060546875
1638746696832522800,1.257522705078125,-0.986968994140625,-0.0648193359375,0.0158538818359375
1638746696842543600,1.267543701171875,-0.9870452880859375,-0.06610107421875,0.01531982421875
1638746696852565500,1.2775654296875,-0.987548828125,-0.0659332275390625,0.014801025390625
1638746696862586400,1.28758642578125,-0.9879302978515625,-0.0641937255859375,0.0142059326171875
1638746696872608300,1.297608154296875,-0.98822021484375,-0.062835693359375,0.0150146484375
1638746696882629000,1.307629150390625,-0.9886322021484375,-0.0629119873046875,0.0150146484375
1638746696892651000,1.317651123046875,-0.9886627197265625,-0.0633697509765625,0.0156402587890625
1638746696902672100,1.327672119140625,-0.9885101318359375,-0.06427001953125,0.0169677734375
1638746696912694300,1.3376943359375,-0.987640380859375,-0.064453125,0.0173797607421875
1638746696922715100,1.347715087890625,-0.987762451171875,-0.06591796875,0.01654052734375
1638746696932737000,1.357737060546875,-0.9873199462890625,-0.0674285888671875,0.0160369873046875
1638746696942758100,1.367758056640625,-0.98760986328125,-0.0674896240234375,0.016143798828125
1638746696952780300,1.3777802734375,-0.986053466796875,-0.067291259765625,0.0139617919921875
1638746696962801200,1.38780126953125,-0.9865875244140625,-0.0661773681640625,0.0147552490234375
1638746696972823000,1.397822998046875,-0.98809814453125,-0.06427001953125,0.0144195556640625
1638746696982844200,1.40784423828125,-0.988800048828125,-0.0641021728515625,0.013946533203125
1638746696992866000,1.417865966796875,-0.98822021484375,-0.0623779296875,0.0129547119140625
1638746697002887200,1.42788720703125,-0.9889068603515625,-0.06280517578125,0.0146484375
1638746697012909000,1.437908935546875,-0.988433837890625,-0.0626220703125,0.0150146484375
1638746697022930200,1.44793017578125,-0.9879913330078125,-0.062591552734375,0.01568603515625
1638746697032952000,1.4579521484375,-0.9886016845703125,-0.0638427734375,0.01556396484375
1638746697042973000,1.467972900390625,-0.98858642578125,-0.0641326904296875,0.01611328125
1638746697052995300,1.477995361328125,-0.987335205078125,-0.06427001953125,0.0161895751953125
1638746697063016200,1.48801611328125,-0.988067626953125,-0.0647735595703125,0.0162353515625
1638746697073037000,1.498037109375,-0.9868011474609375,-0.0649871826171875,0.0172271728515625
1638746697083059200,1.50805908203125,-0.987091064453125,-0.0635528564453125,0.0168609619140625
1638746697093080000,1.518080078125,-0.988983154296875,-0.0633087158203125,0.0164947509765625
1638746697103102200,1.528102294921875,-0.9883880615234375,-0.0630035400390625,0.0164031982421875
1638746697113123000,1.538123046875,-0.9876251220703125,-0.0617523193359375,0.015838623046875
1638746697123145200,1.548145263671875,-0.98870849609375,-0.06024169921875,0.017425537109375
1638746697133166000,1.558166015625,-0.9896240234375,-0.060791015625,0.0181121826171875
1638746697143188200,1.568188232421875,-0.988922119140625,-0.062896728515625,0.0171966552734375
1638746697153209000,1.578208984375,-0.9873199462890625,-0.0623931884765625,0.0146636962890625
1638746697163231200,1.588231201171875,-0.9871978759765625,-0.063934326171875,0.01318359375
1638746697173252000,1.598252197265625,-0.988677978515625,-0.06610107421875,0.0130157470703125
1638746697183274200,1.608274169921875,-0.988800048828125,-0.065826416015625,0.012298583984375
1638746697193295400,1.61829541015625,-0.988433837890625,-0.0653076171875,0.0121612548828125
1638746697203317200,1.628317138671875,-0.9885101318359375,-0.065521240234375,0.0127716064453125
1638746697213338000,1.638338134765625,-0.98797607421875,-0.0666656494140625,0.013397216796875
1638746697223360000,1.648360107421875,-0.988922119140625,-0.0651397705078125,0.0149078369140625
1638746697233381400,1.65838134765625,-0.9900970458984375,-0.0626678466796875,0.0173492431640625
1638746697243403300,1.6684033203125,-0.9891815185546875,-0.063446044921875,0.017333984375
1638746697253424000,1.678424072265625,-0.986572265625,-0.0632476806640625,0.0185546875
1638746697263446000,1.688446044921875,-0.98602294921875,-0.0634613037109375,0.0184326171875
1638746697273467100,1.698467041015625,-0.9879302978515625,-0.06317138671875,0.016845703125
1638746697283489300,1.7084892578125,-0.990325927734375,-0.06158447265625,0.0169677734375
1638746697293510100,1.71851025390625,-0.9895782470703125,-0.0631866455078125,0.01434326171875
1638746697303532000,1.728531982421875,-0.989166259765625,-0.065399169921875,0.01220703125
1638746697313553200,1.73855322265625,-0.987030029296875,-0.066741943359375,0.0121917724609375
1638746697323575300,1.7485751953125,-0.988250732421875,-0.0658416748046875,0.011505126953125
1638746697333596200,1.75859619140625,-0.9890289306640625,-0.0659332275390625,0.012298583984375
1638746697343618000,1.7686181640625,-0.989532470703125,-0.0656280517578125,0.01397705078125
1638746697353639200,1.77863916015625,-0.9876556396484375,-0.0655364990234375,0.014556884765625
1638746697363660000,1.788659912109375,-0.986907958984375,-0.064727783203125,0.0164947509765625
1638746697373682200,1.79868212890625,-0.9879150390625,-0.06463623046875,0.018310546875
1638746697383703300,1.808703369140625,-0.987335205078125,-0.0653076171875,0.0204925537109375
1638746697393725200,1.81872509765625,-0.9870758056640625,-0.0661773681640625,0.021392822265625
1638746697403746000,1.82874609375,-0.9865875244140625,-0.0660247802734375,0.021881103515625
1638746697413768000,1.838767822265625,-0.98712158203125,-0.0640106201171875,0.0237274169921875
1638746697423789300,1.848789306640625,-0.9868621826171875,-0.064727783203125,0.022979736328125
1638746697433811200,1.858811279296875,-0.98663330078125,-0.064544677734375,0.0213775634765625
1638746697443832000,1.86883203125,-0.9860992431640625,-0.065032958984375,0.0190582275390625
1638746697453854200,1.878854248046875,-0.9865570068359375,-0.0655517578125,0.016632080078125
1638746697463875000,1.888875,-0.9875946044921875,-0.0636444091796875,0.01690673828125
1638746697473897200,1.898897216796875,-0.9874267578125,-0.06256103515625,0.0172576904296875
1638746697483918000,1.90891796875,-0.9868316650390625,-0.0626678466796875,0.0167236328125
1638746697493940200,1.918940185546875,-0.987396240234375,-0.0624237060546875,0.016845703125
1638746697503961000,1.928961181640625,-0.986907958984375,-0.0627593994140625,0.015716552734375
1638746697513983200,1.938983154296875,-0.9880828857421875,-0.0637664794921875,0.016632080078125
1638746697524004000,1.949004150390625,-0.9887237548828125,-0.0647430419921875,0.01519775390625
1638746697534026200,1.959026123046875,-0.989013671875,-0.064697265625,0.01397705078125
1638746697544047000,1.969047119140625,-0.9883575439453125,-0.06402587890625,0.0133209228515625
1638746697554069000,1.979069091796875,-0.9889984130859375,-0.0640106201171875,0.0124053955078125
1638746697564090400,1.98909033203125,-0.989532470703125,-0.06390380859375,0.010772705078125
1638746697574112300,1.9991123046875,-0.9884033203125,-0.063690185546875,0.012237548828125
1638746697584133000,2.009133056640625,-0.987518310546875,-0.0637054443359375,0.0115814208984375
1638746697594155000,2.019155029296875,-0.9873809814453125,-0.0621337890625,0.0121612548828125
1638746697604176100,2.029176025390625,-0.9882049560546875,-0.0625,0.0124664306640625
1638746697614198300,2.0391982421875,-0.988372802734375,-0.062774658203125,0.012969970703125
1638746697624219100,2.04921923828125,-0.98846435546875,-0.0631866455078125,0.0127716064453125
1638746697634241000,2.059240966796875,-0.988128662109375,-0.063201904296875,0.013031005859375
1638746697644262100,2.06926220703125,-0.9882354736328125,-0.0641632080078125,0.0149993896484375
1638746697654283000,2.079282958984375,-0.9885406494140625,-0.0644683837890625,0.0167999267578125
1638746697664305200,2.08930517578125,-0.9874267578125,-0.064697265625,0.01824951171875
1638746697674326300,2.099326171875,-0.9876708984375,-0.06414794921875,0.0193939208984375
1638746697684348200,2.10934814453125,-0.98779296875,-0.0631103515625,0.018524169921875
1638746697694369000,2.119369140625,-0.9881134033203125,-0.0632171630859375,0.01922607421875
1638746697704391200,2.12939111328125,-0.9882049560546875,-0.0632476806640625,0.016632080078125
1638746697714412300,2.139412353515625,-0.988067626953125,-0.0634002685546875,0.0158843994140625
1638746697724434200,2.14943408203125,-0.9872894287109375,-0.0626678466796875,0.0147857666015625
1638746697734455000,2.159455078125,-0.9882049560546875,-0.0633544921875,0.0137786865234375
1638746697744477200,2.169477294921875,-0.98760986328125,-0.0638580322265625,0.0139923095703125
1638746697754498300,2.179498291015625,-0.9874114990234375,-0.0642852783203125,0.0142669677734375
1638746697764520200,2.189520263671875,-0.987457275390625,-0.0650177001953125,0.0141143798828125
1638746697774541000,2.199541015625,-0.98724365234375,-0.0644378662109375,0.0147705078125
1638746697784563000,2.20956298828125,-0.98736572265625,-0.065399169921875,0.015594482421875
1638746697794584300,2.219584228515625,-0.986785888671875,-0.0651702880859375,0.016204833984375
1638746697804606200,2.229606201171875,-0.9878387451171875,-0.064605712890625,0.017974853515625
1638746697814627000,2.239626953125,-0.987396240234375,-0.06475830078125,0.017852783203125
1638746697824649200,2.249649169921875,-0.9877166748046875,-0.06475830078125,0.01708984375
1638746697834670000,2.259670166015625,-0.988128662109375,-0.065460205078125,0.017486572265625
1638746697844692200,2.269692138671875,-0.987335205078125,-0.064453125,0.01708984375
1638746697854713600,2.279713623046875,-0.98809814453125,-0.0648040771484375,0.016632080078125
1638746697864735700,2.28973583984375,-0.9881439208984375,-0.0647430419921875,0.0162353515625
1638746697874756900,2.2997568359375,-0.9875640869140625,-0.0641021728515625,0.0152740478515625
1638746697884778800,2.30977880859375,-0.9883880615234375,-0.064208984375,0.0149993896484375
1638746697894799600,2.319799560546875,-0.98883056640625,-0.0635528564453125,0.0149383544921875
1638746697904821800,2.32982177734375,-0.9886474609375,-0.063446044921875,0.0147857666015625
1638746697914843000,2.3398427734375,-0.98828125,-0.0639801025390625,0.015106201171875
1638746697924864800,2.34986474609375,-0.98883056640625,-0.0626068115234375,0.015594482421875
1638746697934885600,2.3598857421875,-0.9890899658203125,-0.0626678466796875,0.0152740478515625
1638746697944907800,2.36990771484375,-0.9876861572265625,-0.06243896484375,0.01580810546875
1638746697954928600,2.3799287109375,-0.9878082275390625,-0.062164306640625,0.01568603515625
1638746697964949800,2.38994970703125,-0.9886322021484375,-0.062225341796875,0.015380859375
1638746697974971600,2.3999716796875,-0.987823486328125,-0.0623016357421875,0.0155487060546875
1638746697984992800,2.40999267578125,-0.988006591796875,-0.062042236328125,0.015533447265625
1638746697995014700,2.4200146484375,-0.98870849609375,-0.0626678466796875,0.015045166015625
1638746698005035500,2.430035400390625,-0.9886627197265625,-0.06292724609375,0.015594482421875
1638746698015058000,2.440057861328125,-0.9873504638671875,-0.0628509521484375,0.0142822265625
1638746698025078800,2.450078857421875,-0.988067626953125,-0.0634765625,0.014373779296875
1638746698035100700,2.4601005859375,-0.988372802734375,-0.0641326904296875,0.015045166015625
1638746698045121800,2.470121826171875,-0.987701416015625,-0.0641632080078125,0.0148162841796875
1638746698055144000,2.48014404296875,-0.9881134033203125,-0.0646820068359375,0.014678955078125
1638746698065164800,2.490164794921875,-0.98797607421875,-0.0645904541015625,0.014556884765625
1638746698075186700,2.500186767578125,-0.9878692626953125,-0.0652618408203125,0.01580810546875
1638746698085207800,2.510207763671875,-0.987701416015625,-0.064727783203125,0.015594482421875
1638746698095229700,2.520229736328125,-0.9871673583984375,-0.0649566650390625,0.0153656005859375
1638746698105250800,2.530250732421875,-0.987548828125,-0.06512451171875,0.0155792236328125
1638746698115272700,2.540272705078125,-0.988067626953125,-0.0645294189453125,0.0154571533203125
1638746698125293800,2.5502939453125,-0.987945556640625,-0.064178466796875,0.016571044921875
1638746698135315700,2.560315673828125,-0.98828125,-0.063934326171875,0.015380859375
1638746698145336600,2.570336669921875,-0.9880218505859375,-0.0634765625,0.0137939453125
1638746698155358700,2.580358642578125,-0.987274169921875,-0.064544677734375,0.0148468017578125
1638746698165379800,2.5903798828125,-0.9869537353515625,-0.06439208984375,0.0150909423828125
1638746698175401700,2.600401611328125,-0.9884796142578125,-0.0643463134765625,0.0149383544921875
1638746698185422600,2.610422607421875,-0.9887847900390625,-0.0637359619140625,0.0135498046875
1638746698195444700,2.62044482421875,-0.9882354736328125,-0.063751220703125,0.014251708984375
1638746698205465900,2.6304658203125,-0.9875030517578125,-0.063934326171875,0.0139617919921875
1638746698215486700,2.64048681640625,-0.9879302978515625,-0.063568115234375,0.0142059326171875
1638746698225508600,2.650508544921875,-0.9889068603515625,-0.0631561279296875,0.0147705078125
1638746698235529700,2.66052978515625,-0.9878082275390625,-0.0632781982421875,0.0146942138671875
1638746698245551900,2.6705517578125,-0.9880218505859375,-0.0634307861328125,0.0150909423828125
1638746698255572700,2.68057275390625,-0.9880523681640625,-0.0629730224609375,0.0141143798828125
1638746698265594600,2.6905947265625,-0.9867095947265625,-0.063385009765625,0.0139007568359375
1638746698275615700,2.70061572265625,-0.9884796142578125,-0.0630950927734375,0.01495361328125
1638746698285638000,2.710637939453125,-0.9877471923828125,-0.0626983642578125,0.014923095703125
1638746698295658800,2.72065869140625,-0.988067626953125,-0.0637664794921875,0.0159759521484375
1638746698305680600,2.7306806640625,-0.9878387451171875,-0.063446044921875,0.01708984375
1638746698315701800,2.74070166015625,-0.9883270263671875,-0.063446044921875,0.0185089111328125
1638746698325723600,2.7507236328125,-0.9875335693359375,-0.0625457763671875,0.021728515625
1638746698335744800,2.760744873046875,-0.987274169921875,-0.0616912841796875,0.0252685546875
1638746698345766700,2.7707666015625,-0.9873046875,-0.0626068115234375,0.0243377685546875
1638746698355787800,2.780787841796875,-0.983306884765625,-0.06719970703125,0.016754150390625
1638746698365809700,2.7908095703125,-0.97650146484375,-0.071014404296875,0.001953125
1638746698375830500,2.80083056640625,-0.9728240966796875,-0.061370849609375,0.0107879638671875
1638746698385853000,2.81085302734375,-0.977447509765625,-0.057281494140625,0.0079193115234375
1638746698395873800,2.820873779296875,-0.9848785400390625,-0.0547637939453125,0.0009918212890625
1638746698405895700,2.830895751953125,-0.9932708740234375,-0.0577545166015625,0.000701904296875
1638746698415916800,2.840916748046875,-0.9996185302734375,-0.06866455078125,0.0017547607421875
1638746698425939000,2.85093896484375,-0.9983062744140625,-0.07470703125,0.00244140625
1638746698435959800,2.860959716796875,-0.995208740234375,-0.075653076171875,0.0009918212890625
1638746698445981700,2.870981689453125,-0.9927215576171875,-0.0735015869140625,0.000762939453125
1638746698456002800,2.8810029296875,-0.98883056640625,-0.0697174072265625,0.0057525634765625
1638746698466024700,2.891024658203125,-0.988006591796875,-0.0666351318359375,0.009765625
1638746698476045800,2.9010458984375,-0.99090576171875,-0.0669403076171875,0.0134429931640625
1638746698486067700,2.911067626953125,-0.9932098388671875,-0.07073974609375,0.0191192626953125
1638746698496088800,2.9210888671875,-0.9876861572265625,-0.074066162109375,0.021392822265625
1638746698506110700,2.93111083984375,-0.985809326171875,-0.07427978515625,0.0194549560546875
1638746698516131600,2.941131591796875,-0.984832763671875,-0.072723388671875,0.01788330078125
1638746698526153000,2.951153076171875,-0.9884033203125,-0.0675811767578125,0.0156707763671875
1638746698536174800,2.9611748046875,-0.9895477294921875,-0.064849853515625,0.018798828125
1638746698546195700,2.97119580078125,-0.990478515625,-0.062225341796875,0.0211181640625
1638746698556217600,2.981217529296875,-0.9879608154296875,-0.0603485107421875,0.0207061767578125
1638746698566238700,2.99123876953125,-0.988037109375,-0.0590362548828125,0.017547607421875
1638746698576260900,3.0012607421875,-0.9888763427734375,-0.0596771240234375,0.015411376953125
1638746698586281700,3.01128173828125,-0.9892425537109375,-0.0608673095703125,0.0153656005859375
1638746698596303600,3.0213037109375,-0.9874114990234375,-0.0615081787109375,0.0152587890625
1638746698606324700,3.03132470703125,-0.9867095947265625,-0.0630950927734375,0.01458740234375
1638746698616347000,3.041346923828125,-0.986083984375,-0.0628662109375,0.01202392578125
1638746698626367700,3.05136767578125,-0.9871826171875,-0.0612945556640625,0.01239013671875
1638746698636389600,3.0613896484375,-0.9889373779296875,-0.0604248046875,0.012054443359375
1638746698646410800,3.07141064453125,-0.9898223876953125,-0.0584564208984375,0.0130767822265625
1638746698656432600,3.0814326171875,-0.9894256591796875,-0.0592498779296875,0.0113372802734375
1638746698666453800,3.091453857421875,-0.98883056640625,-0.0613555908203125,0.0098114013671875
1638746698676475600,3.1014755859375,-0.9891815185546875,-0.0644989013671875,0.0081939697265625
1638746698686496800,3.111496826171875,-0.990631103515625,-0.067352294921875,0.0047149658203125
1638746698696518700,3.1215185546875,-0.9903411865234375,-0.069854736328125,0.004180908203125
1638746698706539500,3.13153955078125,-0.991058349609375,-0.071319580078125,0.0062103271484375
1638746698716562000,3.14156201171875,-0.98846435546875,-0.074462890625,0.00897216796875
1638746698726582800,3.151582763671875,-0.9872283935546875,-0.0756988525390625,0.0120086669921875
1638746698736604700,3.161604736328125,-0.9860992431640625,-0.075103759765625,0.0127410888671875
1638746698746625500,3.17162548828125,-0.984771728515625,-0.074462890625,0.013214111328125
1638746698756648000,3.18164794921875,-0.9839935302734375,-0.07177734375,0.011688232421875
1638746698766668800,3.191668701171875,-0.9857330322265625,-0.0675048828125,0.0103607177734375
1638746698776689700,3.201689697265625,-0.98797607421875,-0.0644378662109375,0.0102081298828125
1638746698786711800,3.2117119140625,-0.9877777099609375,-0.0629425048828125,0.0097808837890625
1638746698796734000,3.22173388671875,-0.9890289306640625,-0.0628509521484375,0.0084381103515625
1638746698806754800,3.2317548828125,-0.9897613525390625,-0.0655364990234375,0.0084228515625
1638746698816775700,3.241775634765625,-0.988800048828125,-0.066986083984375,0.009613037109375
1638746698826797800,3.2517978515625,-0.9884490966796875,-0.068603515625,0.0109100341796875
1638746698836818700,3.261818603515625,-0.9876861572265625,-0.070556640625,0.0121612548828125
1638746698846840600,3.271840576171875,-0.98699951171875,-0.0712738037109375,0.011871337890625
1638746698856861000,3.28186083984375,-0.985137939453125,-0.071197509765625,0.0117034912109375
1638746698866882800,3.2918828125,-0.9864349365234375,-0.0702056884765625,0.012664794921875
1638746698876904000,3.301904052734375,-0.9884490966796875,-0.068206787109375,0.0121002197265625
1638746698886925800,3.31192578125,-0.9890289306640625,-0.0661163330078125,0.010498046875
1638746698896947000,3.321947021484375,-0.9883575439453125,-0.066131591796875,0.0117340087890625
1638746698906968800,3.33196875,-0.988006591796875,-0.0657958984375,0.011627197265625
1638746698916989700,3.34198974609375,-0.9879150390625,-0.0675506591796875,0.0102081298828125
1638746698927011800,3.35201171875,-0.987884521484375,-0.06915283203125,0.010772705078125
1638746698937033000,3.362032958984375,-0.9865875244140625,-0.0708465576171875,0.011749267578125
1638746698947054800,3.372054931640625,-0.98687744140625,-0.0724029541015625,0.01318359375
1638746698957075700,3.38207568359375,-0.98736572265625,-0.0711669921875,0.0160369873046875
1638746698967098000,3.39209814453125,-0.9865570068359375,-0.0689544677734375,0.0174407958984375
1638746698977119000,3.402118896484375,-0.9879302978515625,-0.0677947998046875,0.018157958984375
1638746698987140900,3.412140869140625,-0.98834228515625,-0.069000244140625,0.0194854736328125
1638746698997162000,3.422161865234375,-0.989044189453125,-0.06829833984375,0.0199127197265625
1638746699007184000,3.432183837890625,-0.988525390625,-0.0674285888671875,0.0190582275390625
1638746699017205000,3.442205078125,-0.988067626953125,-0.0678863525390625,0.0183563232421875
1638746699027227000,3.452226806640625,-0.987701416015625,-0.06671142578125,0.0164337158203125
1638746699037248000,3.462248046875,-0.9867706298828125,-0.065460205078125,0.0148773193359375
1638746699047268900,3.472268798828125,-0.9878997802734375,-0.0648956298828125,0.0139617919921875
1638746699057290800,3.482290771484375,-0.988433837890625,-0.064849853515625,0.013671875
1638746699067312000,3.49231201171875,-0.988250732421875,-0.0638885498046875,0.014556884765625
1638746699077334000,3.502333984375,-0.9881439208984375,-0.0628204345703125,0.0139617919921875
1638746699087355000,3.51235498046875,-0.9886932373046875,-0.06195068359375,0.0144195556640625
1638746699097376800,3.522376708984375,-0.989166259765625,-0.0608673095703125,0.0157470703125
1638746699107398000,3.53239794921875,-0.9877166748046875,-0.0615997314453125,0.0134429931640625
1638746699117420000,3.542419921875,-0.9859161376953125,-0.0639190673828125,0.01043701171875
1638746699127441000,3.55244091796875,-0.98638916015625,-0.0651397705078125,0.008636474609375
1638746699137462800,3.562462890625,-0.988037109375,-0.06494140625,0.0089111328125
1638746699147484000,3.57248388671875,-0.9891815185546875,-0.066009521484375,0.0097198486328125
1638746699157506000,3.582506103515625,-0.9896392822265625,-0.0653839111328125,0.01226806640625
1638746699167527000,3.59252685546875,-0.989105224609375,-0.0646514892578125,0.0138702392578125
1638746699177548800,3.602548828125,-0.987457275390625,-0.06402587890625,0.018035888671875
1638746699187570000,3.61256982421875,-0.98583984375,-0.0638427734375,0.021759033203125
1638746699197592000,3.622592041015625,-0.9868316650390625,-0.06512451171875,0.0257415771484375
1638746699207613000,3.632613037109375,-0.9836273193359375,-0.068511962890625,0.026702880859375
1638746699217634800,3.642634765625,-0.9829559326171875,-0.0713653564453125,0.026611328125
1638746699227656000,3.652656005859375,-0.9862518310546875,-0.0719757080078125,0.0222320556640625
1638746699237677800,3.662677734375,-0.9885406494140625,-0.0710296630859375,0.0190277099609375
1638746699247699000,3.672698974609375,-0.991943359375,-0.069366455078125,0.0152587890625
1638746699257720800,3.682720947265625,-0.9915924072265625,-0.068023681640625,0.011993408203125
1638746699267742000,3.692741943359375,-0.9898834228515625,-0.0670166015625,0.0103607177734375
1638746699277763800,3.702763916015625,-0.9866943359375,-0.0656280517578125,0.0083465576171875
1638746699287784700,3.71278466796875,-0.98565673828125,-0.0644073486328125,0.0096588134765625
1638746699297805800,3.722805908203125,-0.9870452880859375,-0.0642547607421875,0.008209228515625
1638746699307828000,3.732827880859375,-0.98760986328125,-0.0624847412109375,0.0076904296875
1638746699317849900,3.742849853515625,-0.9882049560546875,-0.0653228759765625,0.0137786865234375
1638746699327870700,3.75287060546875,-0.988067626953125,-0.0672454833984375,0.0187225341796875
1638746699337891800,3.762891845703125,-0.9859466552734375,-0.063995361328125,0.0226287841796875
1638746699347914000,3.7729140625,-0.9857177734375,-0.0641021728515625,0.02520751953125
1638746699357934800,3.782934814453125,-0.9859771728515625,-0.06414794921875,0.0205230712890625
1638746699367957000,3.79295703125,-0.9864654541015625,-0.06121826171875,0.017120361328125
1638746699377977900,3.802977783203125,-0.988861083984375,-0.0631256103515625,0.0179595947265625
1638746699388000000,3.813,-0.99102783203125,-0.067718505859375,0.0146026611328125
1638746699398020900,3.823020751953125,-0.988739013671875,-0.0657806396484375,0.013397216796875
1638746699408043000,3.83304296875,-0.986968994140625,-0.066253662109375,0.01617431640625
1638746699418064000,3.84306396484375,-0.985198974609375,-0.0654754638671875,0.01580810546875
1638746699428085800,3.853085693359375,-0.985443115234375,-0.06475830078125,0.0135650634765625
1638746699438107100,3.863107177734375,-0.9878387451171875,-0.0693359375,0.016571044921875
1638746699448129000,3.87312890625,-0.9880523681640625,-0.067962646484375,0.0181732177734375
1638746699458150000,3.88314990234375,-0.988006591796875,-0.0663909912109375,0.0180816650390625
1638746699468171800,3.893171875,-0.9886016845703125,-0.071563720703125,0.018157958984375
1638746699478193000,3.90319287109375,-0.9870758056640625,-0.07171630859375,0.0199432373046875
1638746699488215000,3.913215087890625,-0.9874725341796875,-0.0713043212890625,0.021728515625
1638746699498236000,3.92323583984375,-0.9827880859375,-0.063568115234375,0.0234375
1638746699508257800,3.9332578125,-0.9816131591796875,-0.0619659423828125,0.024566650390625
1638746699518279000,3.94327880859375,-0.98480224609375,-0.06439208984375,0.022491455078125
1638746699528301000,3.953301025390625,-0.9867706298828125,-0.06524658203125,0.01043701171875
1638746699538322000,3.963322021484375,-0.988525390625,-0.0667266845703125,0.0037384033203125
1638746699548343800,3.97334375,-0.987945556640625,-0.074798583984375,-0.0083465576171875
1638746699558365000,3.983364990234375,-0.988922119140625,-0.0818634033203125,-0.0070037841796875
1638746699568386800,3.99338671875,-0.9913177490234375,-0.0826263427734375,-0.0029754638671875
1638746699578408000,4.003407958984375,-0.995391845703125,-0.0818328857421875,0.0036773681640625
1638746699588429000,4.013428955078125,-0.9949493408203125,-0.0769195556640625,0.0079498291015625
1638746699598451000,4.023450927734375,-0.9914093017578125,-0.076263427734375,0.0118865966796875
1638746699608471800,4.033471923828125,-0.989776611328125,-0.0804443359375,0.016387939453125
1638746699618493700,4.04349365234375,-0.9864349365234375,-0.0701446533203125,0.018707275390625
1638746699628515000,4.05351513671875,-0.9895782470703125,-0.065032958984375,0.0252685546875
1638746699638537000,4.063536865234375,-0.993072509765625,-0.0712738037109375,0.0280303955078125
1638746699648557800,4.073557861328125,-0.991180419921875,-0.0763397216796875,0.0306243896484375
1638746699658579700,4.083579833984375,-0.9882049560546875,-0.0814666748046875,0.0301666259765625
1638746699668600800,4.093600830078125,-0.9875335693359375,-0.08233642578125,0.0235137939453125
1638746699678623000,4.103623046875,-0.9864501953125,-0.07861328125,0.0183868408203125
1638746699688643800,4.113643798828125,-0.98419189453125,-0.0724334716796875,0.011199951171875
1638746699698666000,4.123666015625,-0.9850006103515625,-0.068023681640625,0.0107879638671875
1638746699708686800,4.133686767578125,-0.98797607421875,-0.0670013427734375,0.0143890380859375
1638746699718709000,4.143708984375,-0.98919677734375,-0.067108154296875,0.018218994140625
1638746699728729900,4.153729736328125,-0.98968505859375,-0.0696563720703125,0.0194549560546875
1638746699738752000,4.163751953125,-0.988189697265625,-0.0699920654296875,0.021514892578125
1638746699748772900,4.17377294921875,-0.9851837158203125,-0.06280517578125,0.020660400390625
1638746699758795000,4.183794921875,-0.9855194091796875,-0.055633544921875,0.0211944580078125
1638746699768815900,4.19381591796875,-0.9876708984375,-0.0587158203125,0.0186309814453125
1638746699778838000,4.203838134765625,-0.9879302978515625,-0.0615692138671875,0.0201263427734375
1638746699788859000,4.21385888671875,-0.9892578125,-0.0648956298828125,0.013153076171875
1638746699798880800,4.223880859375,-0.9887237548828125,-0.0665283203125,0.0113525390625
1638746699808902000,4.23390185546875,-0.9871063232421875,-0.0629425048828125,0.00970458984375
1638746699818924000,4.243924072265625,-0.9883575439453125,-0.061737060546875,0.0096588134765625
1638746699828945000,4.25394482421875,-0.9869384765625,-0.0625762939453125,0.008514404296875
1638746699838966000,4.263966064453125,-0.9867706298828125,-0.061737060546875,0.0099639892578125
1638746699848988000,4.27398779296875,-0.9867401123046875,-0.0624542236328125,0.006744384765625
1638746699859009300,4.28400927734375,-0.987335205078125,-0.061187744140625,0.00860595703125
1638746699869031400,4.294031494140625,-0.9892425537109375,-0.061492919921875,0.0078277587890625
1638746699879052300,4.30405224609375,-0.9904022216796875,-0.0643463134765625,0.0085601806640625
1638746699889074400,4.314074462890625,-0.9877166748046875,-0.063446044921875,0.005859375
1638746699899095300,4.32409521484375,-0.984375,-0.063140869140625,0.0057220458984375
1638746699909117400,4.334117431640625,-0.9830322265625,-0.062957763671875,0.007720947265625
1638746699919138300,4.34413818359375,-0.9852294921875,-0.0622100830078125,0.00823974609375
1638746699929160400,4.354160400390625,-0.9893951416015625,-0.061981201171875,0.00994873046875
1638746699939181300,4.364181396484375,-0.99127197265625,-0.0572052001953125,0.01800537109375
1638746699949203200,4.374203125,-0.9919891357421875,-0.053741455078125,0.0297393798828125
1638746699959224600,4.384224609375,-0.9900360107421875,-0.0570526123046875,0.0341949462890625
1638746699969246500,4.39424658203125,-0.9846954345703125,-0.058349609375,0.0362701416015625
1638746699979267300,4.404267333984375,-0.979339599609375,-0.0555877685546875,0.035736083984375
1638746699989289200,4.414289306640625,-0.979217529296875,-0.0539703369140625,0.0297698974609375
1638746699999310300,4.424310302734375,-0.98468017578125,-0.0568695068359375,0.0219268798828125
1638746700009332500,4.43433251953125,-0.9905242919921875,-0.0649871826171875,0.0140533447265625
1638746700019353300,4.444353271484375,-0.9910430908203125,-0.0644989013671875,0.0108795166015625
1638746700029375200,4.454375244140625,-0.98956298828125,-0.0650482177734375,0.0111846923828125
1638746700039396400,4.464396240234375,-0.9913482666015625,-0.0751190185546875,0.0158538818359375
1638746700049418500,4.47441845703125,-0.98822021484375,-0.0753326416015625,0.017181396484375
1638746700059439400,4.484439453125,-0.9861602783203125,-0.0701904296875,0.0233154296875
1638746700069461200,4.494461181640625,-0.987884521484375,-0.0708770751953125,0.0266876220703125
1638746700079482400,4.504482421875,-0.9907684326171875,-0.072845458984375,0.0295867919921875
1638746700089504500,4.51450439453125,-0.9897613525390625,-0.0723114013671875,0.03045654296875
1638746700099525400,4.524525390625,-0.9868621826171875,-0.067718505859375,0.0319671630859375
1638746700109547300,4.53454736328125,-0.9871978759765625,-0.0665740966796875,0.026031494140625
1638746700119568400,4.544568359375,-0.9885101318359375,-0.0684051513671875,0.0218048095703125
1638746700129589200,4.55458935546875,-0.9880828857421875,-0.0666961669921875,0.0191497802734375
1638746700139611400,4.564611328125,-0.987518310546875,-0.0660400390625,0.0153961181640625
1638746700149632500,4.574632568359375,-0.987274169921875,-0.0638275146484375,0.015869140625
1638746700159654400,4.584654296875,-0.988861083984375,-0.0623931884765625,0.0171966552734375
1638746700169675300,4.59467529296875,-0.990936279296875,-0.057830810546875,0.0192108154296875
1638746700179697200,4.604697265625,-0.9905242919921875,-0.053955078125,0.0223236083984375
1638746700189718300,4.61471826171875,-0.9880218505859375,-0.0561065673828125,0.023040771484375
1638746700199740400,4.624740478515625,-0.9854583740234375,-0.0577545166015625,0.02667236328125
1638746700209761300,4.63476123046875,-0.983795166015625,-0.05694580078125,0.02789306640625
1638746700219783400,4.644783447265625,-0.98699951171875,-0.0623016357421875,0.0227813720703125
1638746700229804300,4.65480419921875,-0.98736572265625,-0.0641937255859375,0.02294921875
1638746700239826400,4.664826416015625,-0.9884185791015625,-0.0621337890625,0.02349853515625
1638746700249847300,4.674847412109375,-0.9903717041015625,-0.0618896484375,0.0188751220703125
1638746700259869400,4.684869384765625,-0.9909210205078125,-0.0707244873046875,0.00946044921875
1638746700269890300,4.694890380859375,-0.9874725341796875,-0.068695068359375,0.00909423828125
1638746700279912400,4.704912353515625,-0.984649658203125,-0.05926513671875,0.0140533447265625
1638746700289933600,4.71493359375,-0.98358154296875,-0.0622100830078125,0.0056915283203125
1638746700299955500,4.72495556640625,-0.9892578125,-0.06048583984375,0.0101776123046875
1638746700309976300,4.734976318359375,-0.9920806884765625,-0.0532073974609375,0.017578125
1638746700319998200,4.744998291015625,-0.991729736328125,-0.0542449951171875,0.013458251953125
1638746700330019600,4.75501953125,-0.991302490234375,-0.0587921142578125,0.015472412109375
1638746700340041500,4.76504150390625,-0.9889678955078125,-0.0627288818359375,0.0184783935546875
1638746700350062300,4.775062255859375,-0.98529052734375,-0.0644683837890625,0.02294921875
1638746700360084200,4.785084228515625,-0.9852752685546875,-0.0658721923828125,0.0300445556640625
1638746700370105300,4.795105224609375,-0.9873046875,-0.067138671875,0.0359344482421875
1638746700380126500,4.80512646484375,-0.989227294921875,-0.0698089599609375,0.03399658203125
1638746700390148400,4.8151484375,-0.98797607421875,-0.0690155029296875,0.03192138671875
1638746700400169500,4.82516943359375,-0.98687744140625,-0.0704345703125,0.0216217041015625
1638746700410191400,4.83519140625,-0.987518310546875,-0.069000244140625,0.0204315185546875
1638746700420212200,4.845212158203125,-0.987640380859375,-0.063232421875,0.0173492431640625
1638746700430234400,4.855234375,-0.9890289306640625,-0.062469482421875,0.0156097412109375
1638746700440255500,4.86525537109375,-0.9892425537109375,-0.0587921142578125,0.0186004638671875
1638746700450277400,4.87527734375,-0.98748779296875,-0.052978515625,0.018402099609375
1638746700460298200,4.88529833984375,-0.987945556640625,-0.0509185791015625,0.02069091796875
1638746700470320400,4.8953203125,-0.9888153076171875,-0.0508880615234375,0.0222320556640625
1638746700480341500,4.905341552734375,-0.990509033203125,-0.052764892578125,0.0261688232421875
1638746700490363400,4.91536328125,-0.98907470703125,-0.05517578125,0.0258026123046875
1638746700500384300,4.92538427734375,-0.9886322021484375,-0.058258056640625,0.025543212890625
1638746700510406100,4.93540625,-0.9887847900390625,-0.0634918212890625,0.0219268798828125
1638746700520427500,4.945427490234375,-0.985809326171875,-0.0657501220703125,0.016448974609375
1638746700530449400,4.955449462890625,-0.9865264892578125,-0.06732177734375,0.0130615234375
1638746700540470300,4.96547021484375,-0.987640380859375,-0.068939208984375,0.0141448974609375
1638746700550492200,4.9754921875,-0.987945556640625,-0.06878662109375,0.0086822509765625
1638746700560513300,4.98551318359375,-0.990478515625,-0.061767578125,0.018035888671875
1638746700570535400,4.995535400390625,-0.990142822265625,-0.0571136474609375,0.018218994140625
1638746700580556300,5.005556396484375,-0.990753173828125,-0.061187744140625,0.0157928466796875
1638746700590578400,5.015578369140625,-0.9881134033203125,-0.063629150390625,0.01556396484375
1638746700600599300,5.025599365234375,-0.985107421875,-0.0608673095703125,0.0146331787109375
1638746700610621400,5.035621337890625,-0.985992431640625,-0.0601043701171875,0.00775146484375
1638746700620642300,5.045642333984375,-0.9873504638671875,-0.0586395263671875,0.0139923095703125
1638746700630664400,5.05566455078125,-0.986785888671875,-0.0539093017578125,0.011871337890625
1638746700640685300,5.065685302734375,-0.9889678955078125,-0.0538787841796875,0.018035888671875
1638746700650706200,5.0757060546875,-0.98760986328125,-0.04998779296875,0.0221710205078125
1638746700660728600,5.085728515625,-0.9899444580078125,-0.051300048828125,0.0254669189453125
1638746700670749400,5.09574951171875,-0.9903564453125,-0.0570068359375,0.022796630859375
1638746700680771300,5.105771240234375,-0.9913330078125,-0.05816650390625,0.0301971435546875
1638746700690792400,5.11579248046875,-0.9922637939453125,-0.059234619140625,0.0255279541015625
1638746700700814300,5.125814453125,-0.9910736083984375,-0.0592803955078125,0.0257415771484375
1638746700710835500,5.13583544921875,-0.9882049560546875,-0.05828857421875,0.0267181396484375
1638746700720857300,5.145857421875,-0.98492431640625,-0.0616607666015625,0.023040771484375
1638746700730878500,5.15587841796875,-0.98590087890625,-0.0689849853515625,0.018646240234375
1638746700740900400,5.165900390625,-0.9884185791015625,-0.0677642822265625,0.01202392578125
1638746700750921200,5.175921142578125,-0.987701416015625,-0.06072998046875,0.0078277587890625
1638746700760943400,5.185943359375,-0.9895782470703125,-0.06243896484375,0.0041351318359375
1638746700770964500,5.195964599609375,-0.9869232177734375,-0.0570068359375,0.0050201416015625
1638746700780986400,5.205986328125,-0.98822021484375,-0.0535430908203125,0.016693115234375
1638746700791007200,5.21600732421875,-0.98968505859375,-0.05029296875,0.0137481689453125
1638746700801029400,5.226029296875,-0.992950439453125,-0.0578765869140625,0.0288848876953125
1638746700811050500,5.236050537109375,-0.9915618896484375,-0.06658935546875,0.0303955078125
1638746700821072400,5.246072265625,-0.9892578125,-0.071807861328125,0.0223541259765625
1638746700831093200,5.25609326171875,-0.9891815185546875,-0.0735015869140625,0.0225982666015625
1638746700841115400,5.266115478515625,-0.98651123046875,-0.068389892578125,0.0124969482421875
1638746700851136500,5.276136474609375,-0.986541748046875,-0.065399169921875,0.0150909423828125
1638746700861158000,5.286157958984375,-0.98773193359375,-0.05877685546875,0.0264129638671875
1638746700871178800,5.2961787109375,-0.985687255859375,-0.0482025146484375,0.0328369140625
1638746700881201000,5.306200927734375,-0.988189697265625,-0.044891357421875,0.0303955078125
1638746700891221800,5.3162216796875,-0.99114990234375,-0.048248291015625,0.0344696044921875
1638746700901242600,5.32624267578125,-0.9891815185546875,-0.053375244140625,0.028900146484375
1638746700911265000,5.33626513671875,-0.9888458251953125,-0.064056396484375,0.0230865478515625
1638746700921286000,5.346285888671875,-0.98931884765625,-0.0733642578125,0.02349853515625
1638746700931307800,5.356307861328125,-0.9876251220703125,-0.07147216796875,0.023345947265625
1638746700941328600,5.36632861328125,-0.9889678955078125,-0.0679779052734375,0.03057861328125
1638746700951350800,5.376350830078125,-0.9895172119140625,-0.0681915283203125,0.0294342041015625
1638746700961372000,5.386371826171875,-0.9884490966796875,-0.0595550537109375,0.0307464599609375
1638746700971393800,5.396393798828125,-0.988922119140625,-0.056304931640625,0.02911376953125
1638746700981415000,5.406414794921875,-0.98834228515625,-0.0599365234375,0.0252838134765625
1638746700991436800,5.416436767578125,-0.9832305908203125,-0.0535430908203125,0.0228729248046875
1638746701001457700,5.426457763671875,-0.980499267578125,-0.04638671875,0.019256591796875
1638746701011479800,5.436479736328125,-0.9846343994140625,-0.0482025146484375,0.0141754150390625
1638746701021501000,5.4465009765625,-0.98785400390625,-0.0594482421875,0.00531005859375
1638746701031522800,5.456522705078125,-0.98638916015625,-0.0640411376953125,0.0004730224609375
1638746701041543700,5.466543701171875,-0.9886474609375,-0.063232421875,0.0064697265625
1638746701051565800,5.47656591796875,-0.9916229248046875,-0.062164306640625,0.0081787109375
1638746701061587000,5.4865869140625,-0.9930877685546875,-0.0640106201171875,0.0153045654296875
1638746701071608800,5.49660888671875,-0.9925384521484375,-0.066436767578125,0.0279541015625
1638746701081629700,5.506629638671875,-0.9893798828125,-0.0611572265625,0.0389251708984375
1638746701091651600,5.516651611328125,-0.9875640869140625,-0.0495147705078125,0.0470123291015625
1638746701101673000,5.5266728515625,-0.988037109375,-0.046478271484375,0.0529632568359375
1638746701111694800,5.53669482421875,-0.99066162109375,-0.0520172119140625,0.0596160888671875
1638746701121715700,5.5467158203125,-0.9869384765625,-0.058135986328125,0.06829833984375
1638746701131737600,5.556737548828125,-0.984527587890625,-0.0591278076171875,0.07452392578125
1638746701141758700,5.5667587890625,-0.985931396484375,-0.057037353515625,0.0709228515625
1638746701151779800,5.57677978515625,-0.9902191162109375,-0.058746337890625,0.0612030029296875
1638746701161801700,5.5868017578125,-0.9871368408203125,-0.061187744140625,0.0418853759765625
1638746701171822800,5.59682275390625,-0.982208251953125,-0.0623931884765625,0.0355072021484375
1638746701181844700,5.6068447265625,-0.97802734375,-0.059967041015625,0.0094146728515625
1638746701191865600,5.616865478515625,-0.9872589111328125,-0.0585784912109375,0.01416015625
1638746701201887700,5.6268876953125,-0.996185302734375,-0.0542755126953125,0.027191162109375
1638746701211908900,5.636908935546875,-0.9884490966796875,-0.061004638671875,0.007080078125
1638746701221930800,5.6469306640625,-0.9809722900390625,-0.05908203125,0.028533935546875
1638746701231951600,5.65695166015625,-0.9900360107421875,-0.0745697021484375,0.0068511962890625
1638746701241973800,5.666973876953125,-0.9964141845703125,-0.0573577880859375,0.025360107421875
1638746701251995000,5.676994873046875,-0.9983673095703125,-0.0465545654296875,0.0373077392578125
1638746701262016800,5.687016845703125,-0.98931884765625,-0.05084228515625,0.03533935546875
1638746701272037600,5.69703759765625,-0.98046875,-0.0543670654296875,0.0318603515625
1638746701282059800,5.707059814453125,-0.9820098876953125,-0.060455322265625,0.01995849609375
1638746701292081000,5.717080810546875,-0.9876708984375,-0.0640869140625,0.0192718505859375
1638746701302102800,5.727102783203125,-0.9890594482421875,-0.061279296875,0.0287017822265625
1638746701312123600,5.73712353515625,-0.9847869873046875,-0.059173583984375,0.03863525390625
1638746701322145800,5.747145751953125,-0.981719970703125,-0.0546722412109375,0.0464019775390625
1638746701332166700,5.757166748046875,-0.983856201171875,-0.0587310791015625,0.049346923828125
1638746701342188800,5.767188720703125,-0.983795166015625,-0.0611419677734375,0.048370361328125
1638746701352210000,5.7772099609375,-0.9852752685546875,-0.061767578125,0.0491790771484375
1638746701362231800,5.787231689453125,-0.9916534423828125,-0.061370849609375,0.0467987060546875
1638746701372252700,5.797252685546875,-0.995269775390625,-0.0594024658203125,0.04193115234375
1638746701382273800,5.807273681640625,-0.99432373046875,-0.057037353515625,0.0348968505859375
1638746701392296000,5.8172958984375,-0.9883270263671875,-0.0540924072265625,0.0255279541015625
1638746701402316800,5.82731689453125,-0.9834747314453125,-0.0525970458984375,0.021484375
1638746701412338700,5.837338623046875,-0.9833831787109375,-0.05303955078125,0.0250396728515625
1638746701422359800,5.84735986328125,-0.9828033447265625,-0.056793212890625,0.029266357421875
1638746701432382000,5.8573818359375,-0.986053466796875,-0.0595703125,0.0325775146484375
1638746701442402800,5.86740283203125,-0.9892730712890625,-0.0604400634765625,0.0348358154296875
1638746701452424700,5.8774248046875,-0.99261474609375,-0.0619964599609375,0.0382843017578125
1638746701462445800,5.88744580078125,-0.9915313720703125,-0.0624847412109375,0.041900634765625
1638746701472468000,5.897468017578125,-0.9881439208984375,-0.061248779296875,0.042999267578125
1638746701482488800,5.90748876953125,-0.98406982421875,-0.05987548828125,0.042633056640625
1638746701492510700,5.9175107421875,-0.9842987060546875,-0.058441162109375,0.0404510498046875
1638746701502531800,5.92753173828125,-0.9857940673828125,-0.05743408203125,0.0375518798828125
1638746701512553700,5.9375537109375,-0.9882049560546875,-0.0563507080078125,0.033782958984375
1638746701522574600,5.94757470703125,-0.99066162109375,-0.0561676025390625,0.031890869140625
1638746701532596700,5.9575966796875,-0.9885406494140625,-0.056854248046875,0.030303955078125
1638746701542617900,5.967617919921875,-0.9881134033203125,-0.05657958984375,0.0301971435546875
1638746701552639700,5.9776396484375,-0.98748779296875,-0.057464599609375,0.0326995849609375
1638746701562660600,5.98766064453125,-0.986114501953125,-0.059661865234375,0.0337982177734375
1638746701572682800,5.997682861328125,-0.98748779296875,-0.060882568359375,0.0359954833984375
1638746701582703900,6.007703857421875,-0.9878692626953125,-0.06036376953125,0.0379180908203125
1638746701592725800,6.017725830078125,-0.9880523681640625,-0.0607452392578125,0.0393218994140625
1638746701602746600,6.02774658203125,-0.9862060546875,-0.060302734375,0.03985595703125
1638746701612768800,6.037768798828125,-0.9857635498046875,-0.059326171875,0.0403289794921875
1638746701622790000,6.047789794921875,-0.9868621826171875,-0.057830810546875,0.0393524169921875
1638746701632811800,6.057811767578125,-0.9874114990234375,-0.05731201171875,0.036712646484375
1638746701642832600,6.06783251953125,-0.9879913330078125,-0.0565948486328125,0.0336456298828125
1638746701652853800,6.077853759765625,-0.9890899658203125,-0.0573272705078125,0.0319061279296875
1638746701662876000,6.0878759765625,-0.990570068359375,-0.0570068359375,0.0319976806640625
1638746701672896800,6.097896728515625,-0.9898681640625,-0.0569610595703125,0.0329437255859375
1638746701682919000,6.1079189453125,-0.9872589111328125,-0.057342529296875,0.0340728759765625
1638746701692939800,6.117939697265625,-0.986236572265625,-0.0580596923828125,0.0354461669921875
1638746701702961700,6.127961669921875,-0.986480712890625,-0.0592803955078125,0.03680419921875
1638746701712982800,6.137982666015625,-0.9870452880859375,-0.0595703125,0.03765869140625
1638746701723005000,6.1480048828125,-0.9882659912109375,-0.059600830078125,0.0380096435546875
1638746701733025800,6.15802587890625,-0.990325927734375,-0.059722900390625,0.0369873046875
1638746701743047700,6.168047607421875,-0.98931884765625,-0.05853271484375,0.036376953125
1638746701753068800,6.17806884765625,-0.986907958984375,-0.0584869384765625,0.0355072021484375
1638746701763091000,6.188091064453125,-0.987457275390625,-0.0586395263671875,0.0346832275390625
1638746701773111800,6.19811181640625,-0.9874420166015625,-0.0571746826171875,0.0344085693359375
1638746701783133700,6.2081337890625,-0.986297607421875,-0.0575103759765625,0.0339508056640625
1638746701793154800,6.21815478515625,-0.9874114990234375,-0.0587158203125,0.034454345703125
1638746701803177000,6.228177001953125,-0.9892730712890625,-0.0582733154296875,0.03509521484375
1638746701813197800,6.23819775390625,-0.988311767578125,-0.057861328125,0.0355377197265625
1638746701823219700,6.2482197265625,-0.9878082275390625,-0.0591278076171875,0.0364227294921875
1638746701833240800,6.25824072265625,-0.98797607421875,-0.06011962890625,0.0356292724609375
1638746701843262700,6.2682626953125,-0.987548828125,-0.05950927734375,0.035552978515625
1638746701853283800,6.278283935546875,-0.9878082275390625,-0.0596771240234375,0.037017822265625
1638746701863305700,6.2883056640625,-0.9875030517578125,-0.0590667724609375,0.0367431640625
1638746701873326800,6.298326904296875,-0.986236572265625,-0.059356689453125,0.0363006591796875
1638746701883349000,6.308348876953125,-0.9867095947265625,-0.0587158203125,0.0367584228515625
1638746701893369900,6.318369873046875,-0.9867706298828125,-0.0590972900390625,0.0361328125
1638746701903391000,6.328390869140625,-0.987335205078125,-0.0584259033203125,0.035369873046875
1638746701913412900,6.338412841796875,-0.98876953125,-0.0582733154296875,0.035369873046875
1638746701923433700,6.348433837890625,-0.9904632568359375,-0.0589599609375,0.0356903076171875
1638746701933456000,6.358455810546875,-0.98828125,-0.058746337890625,0.0358734130859375
1638746701943477000,6.36847705078125,-0.986541748046875,-0.05828857421875,0.0359954833984375
1638746701953499000,6.378498779296875,-0.9871826171875,-0.05865478515625,0.0352783203125
1638746701963519700,6.388519775390625,-0.9880828857421875,-0.0586090087890625,0.034820556640625
1638746701973542000,6.3985419921875,-0.9869232177734375,-0.0588531494140625,0.0353546142578125
1638746701983563000,6.40856298828125,-0.98748779296875,-0.0591888427734375,0.036712646484375
1638746701993585000,6.4185849609375,-0.988922119140625,-0.059112548828125,0.036895751953125
1638746702003605800,6.428605712890625,-0.9886016845703125,-0.05853271484375,0.036895751953125
1638746702013627600,6.438627685546875,-0.9878997802734375,-0.058135986328125,0.0367889404296875
1638746702023649000,6.44864892578125,-0.9878082275390625,-0.0581207275390625,0.0358428955078125
1638746702033671000,6.4586708984375,-0.9879608154296875,-0.0586700439453125,0.035614013671875
1638746702043691800,6.46869189453125,-0.98876953125,-0.058013916015625,0.036865234375
1638746702053714000,6.4787138671875,-0.9877777099609375,-0.0589599609375,0.035247802734375
1638746702063734800,6.48873486328125,-0.9874420166015625,-0.0589141845703125,0.0347900390625
1638746702073757000,6.4987568359375,-0.987548828125,-0.0590972900390625,0.0345611572265625
1638746702083777800,6.50877783203125,-0.9876708984375,-0.058624267578125,0.0354766845703125
1638746702093800000,6.518800048828125,-0.98779296875,-0.0583648681640625,0.0351104736328125
1638746702103820800,6.52882080078125,-0.9889373779296875,-0.0586700439453125,0.0354461669921875
1638746702113843000,6.538843017578125,-0.9873504638671875,-0.05914306640625,0.035980224609375
1638746702123863800,6.54886376953125,-0.9871978759765625,-0.05859375,0.03680419921875
1638746702133885000,6.558885009765625,-0.9867401123046875,-0.058135986328125,0.03643798828125
1638746702143906800,6.56890673828125,-0.9886322021484375,-0.0587005615234375,0.0373992919921875
1638746702153927700,6.578927734375,-0.988433837890625,-0.058135986328125,0.0367889404296875
1638746702163950000,6.5889501953125,-0.9880828857421875,-0.05792236328125,0.0368804931640625
1638746702173971000,6.598970947265625,-0.9874267578125,-0.057708740234375,0.0356597900390625
1638746702183992800,6.608992919921875,-0.98809814453125,-0.0587158203125,0.0332183837890625
1638746702194014000,6.619013916015625,-0.9918670654296875,-0.0584716796875,0.0310211181640625
1638746702204035800,6.629035888671875,-0.9940185546875,-0.057159423828125,0.0315093994140625
1638746702214057000,6.639056884765625,-0.9915771484375,-0.058074951171875,0.0338592529296875
1638746702224078800,6.649078857421875,-0.9858856201171875,-0.05828857421875,0.0370941162109375
1638746702234100000,6.659099853515625,-0.9797821044921875,-0.0580902099609375,0.0386505126953125
1638746702244121900,6.669121826171875,-0.9801177978515625,-0.0595703125,0.0401763916015625
1638746702254142700,6.679142822265625,-0.9863739013671875,-0.0609130859375,0.0410003662109375
1638746702264164900,6.689164794921875,-0.990814208984375,-0.0597076416015625,0.0391998291015625
1638746702274186000,6.69918603515625,-0.9931488037109375,-0.0582733154296875,0.03619384765625
1638746702284207900,6.709207763671875,-0.9925994873046875,-0.0578460693359375,0.0350494384765625
1638746702294228700,6.719228759765625,-0.9888458251953125,-0.0576629638671875,0.033721923828125
1638746702304251000,6.7292509765625,-0.9848175048828125,-0.0583038330078125,0.0344696044921875
1638746702314272000,6.73927197265625,-0.9832611083984375,-0.0591888427734375,0.0351409912109375
1638746702324294000,6.7492939453125,-0.9851837158203125,-0.0584564208984375,0.03582763671875
1638746702334314800,6.759314697265625,-0.9866180419921875,-0.0590057373046875,0.0366363525390625
1638746702344336600,6.769336669921875,-0.9887847900390625,-0.059814453125,0.0373992919921875
1638746702354358000,6.77935791015625,-0.9904327392578125,-0.058868408203125,0.0370941162109375
1638746702364379000,6.78937890625,-0.9888763427734375,-0.0596466064453125,0.039031982421875
1638746702374400800,6.79940087890625,-0.987823486328125,-0.0590667724609375,0.0380096435546875
1638746702384422000,6.809421875,-0.98785400390625,-0.0588836669921875,0.0373077392578125
1638746702394443800,6.81944384765625,-0.98675537109375,-0.0583343505859375,0.0366363525390625
1638746702404465000,6.82946484375,-0.9871826171875,-0.057708740234375,0.036102294921875
1638746702414486800,6.83948681640625,-0.9869232177734375,-0.0576629638671875,0.0350799560546875
1638746702424508000,6.8495078125,-0.9870452880859375,-0.05828857421875,0.035736083984375
1638746702434529800,6.85952978515625,-0.98822021484375,-0.058349609375,0.03521728515625
1638746702444550700,6.869550537109375,-0.98773193359375,-0.058380126953125,0.0354156494140625
1638746702454572800,6.87957275390625,-0.988128662109375,-0.0590972900390625,0.0355682373046875
1638746702464594000,6.889593994140625,-0.986541748046875,-0.0597991943359375,0.0367431640625
1638746702474615800,6.89961572265625,-0.9878082275390625,-0.0577545166015625,0.036224365234375
1638746702484636700,6.90963671875,-0.9870147705078125,-0.058624267578125,0.037628173828125
1638746702494659000,6.9196591796875,-0.9883270263671875,-0.0587310791015625,0.038055419921875
1638746702504680000,6.929679931640625,-0.98712158203125,-0.058837890625,0.037628173828125
1638746702514701800,6.939701904296875,-0.9881591796875,-0.059234619140625,0.03717041015625
1638746702524722700,6.94972265625,-0.9879608154296875,-0.0581207275390625,0.036102294921875
1638746702534745000,6.9597451171875,-0.9884796142578125,-0.0579833984375,0.0350494384765625
1638746702544766000,6.969765869140625,-0.9877166748046875,-0.0585784912109375,0.035736083984375
1638746702554787800,6.979787841796875,-0.9882965087890625,-0.0580596923828125,0.036102294921875
1638746702564809000,6.98980908203125,-0.98785400390625,-0.0584716796875,0.03741455078125
1638746702574830800,6.999830810546875,-0.9878387451171875,-0.0591278076171875,0.0367431640625
1638746702584852000,7.00985205078125,-0.9859771728515625,-0.058746337890625,0.0361175537109375
1638746702594873900,7.019873779296875,-0.9857635498046875,-0.0593719482421875,0.037109375
1638746702604895000,7.02989501953125,-0.987518310546875,-0.060943603515625,0.0377044677734375
1638746702614916900,7.039916748046875,-0.9887847900390625,-0.058807373046875,0.0366973876953125
1638746702624937700,7.049937744140625,-0.9898681640625,-0.0579986572265625,0.0372314453125
1638746702634959000,7.059958984375,-0.9882965087890625,-0.058868408203125,0.0361175537109375
1638746702644981000,7.06998095703125,-0.9869537353515625,-0.05804443359375,0.0366363525390625
1638746702655001900,7.080001953125,-0.98724365234375,-0.0584869384765625,0.0353851318359375
1638746702665023700,7.090023681640625,-0.9874420166015625,-0.0583038330078125,0.0359649658203125
1638746702675044900,7.100044921875,-0.98773193359375,-0.0583343505859375,0.03662109375
1638746702685067000,7.11006689453125,-0.9874420166015625,-0.059051513671875,0.03582763671875
1638746702695087900,7.120087890625,-0.98724365234375,-0.0587921142578125,0.03729248046875
1638746702705109800,7.13010986328125,-0.9888916015625,-0.0588836669921875,0.03607177734375
1638746702715131000,7.140130859375,-0.9884185791015625,-0.058837890625,0.0370330810546875
1638746702725153000,7.150153076171875,-0.9872894287109375,-0.0590972900390625,0.036865234375
1638746702735174000,7.160173828125,-0.9859771728515625,-0.0595550537109375,0.037689208984375
1638746702745195800,7.17019580078125,-0.9847259521484375,-0.05865478515625,0.03863525390625
1638746702755217000,7.180216796875,-0.9867095947265625,-0.0582427978515625,0.0379180908203125
1638746702765238800,7.19023876953125,-0.989227294921875,-0.057586669921875,0.03564453125
1638746702775260000,7.200260009765625,-0.9906463623046875,-0.05828857421875,0.03582763671875
1638746702785281800,7.21028173828125,-0.9889984130859375,-0.0586090087890625,0.0355987548828125
1638746702795303000,7.220302978515625,-0.9883575439453125,-0.0569915771484375,0.0354461669921875
1638746702805324800,7.23032470703125,-0.9868621826171875,-0.0577545166015625,0.03668212890625
1638746702815345700,7.240345703125,-0.9846954345703125,-0.0589752197265625,0.03729248046875
1638746702825367800,7.250367919921875,-0.9866485595703125,-0.0591888427734375,0.03759765625
1638746702835389000,7.260388916015625,-0.9877777099609375,-0.059295654296875,0.037506103515625
1638746702845410800,7.270410888671875,-0.9881439208984375,-0.0604248046875,0.0374603271484375
1638746702855431700,7.280431640625,-0.9889984130859375,-0.059814453125,0.036346435546875
1638746702865454000,7.2904541015625,-0.990692138671875,-0.0579376220703125,0.034423828125
1638746702875475200,7.30047509765625,-0.9924163818359375,-0.0581207275390625,0.0335235595703125
1638746702885496000,7.31049609375,-0.9897308349609375,-0.057952880859375,0.03485107421875
1638746702895518200,7.320518310546875,-0.985015869140625,-0.057525634765625,0.037139892578125
1638746702905539300,7.330539306640625,-0.982177734375,-0.0583343505859375,0.0379791259765625
1638746702915561200,7.340561279296875,-0.983428955078125,-0.0591278076171875,0.03729248046875
1638746702925582000,7.35058203125,-0.9889984130859375,-0.059234619140625,0.0373687744140625
1638746702935604200,7.360604248046875,-0.991363525390625,-0.0596466064453125,0.0373687744140625
1638746702945625300,7.370625244140625,-0.9919891357421875,-0.0584869384765625,0.0376434326171875
1638746702955647200,7.380647216796875,-0.98870849609375,-0.0589599609375,0.0373382568359375
1638746702965668000,7.390668212890625,-0.9846954345703125,-0.059326171875,0.0373077392578125
1638746702975690200,7.400690185546875,-0.9835205078125,-0.0587158203125,0.0361328125
1638746702985711400,7.41071142578125,-0.9859771728515625,-0.05877685546875,0.0347747802734375
1638746702995733200,7.420733154296875,-0.9884490966796875,-0.0587615966796875,0.0341644287109375
1638746703005754000,7.430754150390625,-0.989898681640625,-0.0574493408203125,0.034942626953125
1638746703015776300,7.4407763671875,-0.9902496337890625,-0.057952880859375,0.0356292724609375
1638746703025797000,7.450797119140625,-0.988739013671875,-0.0576019287109375,0.03692626953125
1638746703035819300,7.4608193359375,-0.987060546875,-0.0587615966796875,0.037322998046875
1638746703045840400,7.47084033203125,-0.986968994140625,-0.0591278076171875,0.0364837646484375
1638746703055862300,7.4808623046875,-0.98773193359375,-0.05902099609375,0.0372314453125
1638746703065883100,7.490883056640625,-0.98779296875,-0.05908203125,0.036834716796875
1638746703075905300,7.5009052734375,-0.987335205078125,-0.0596160888671875,0.036224365234375
1638746703085926400,7.510926513671875,-0.98773193359375,-0.058624267578125,0.03558349609375
1638746703095948300,7.5209482421875,-0.988983154296875,-0.0591888427734375,0.035888671875
1638746703105969200,7.53096923828125,-0.988983154296875,-0.0583038330078125,0.035308837890625
1638746703115990300,7.540990234375,-0.987762451171875,-0.0576324462890625,0.036102294921875
1638746703126012400,7.551012451171875,-0.9874267578125,-0.05841064453125,0.0353240966796875
1638746703136033300,7.561033203125,-0.98687744140625,-0.0587310791015625,0.0362396240234375
1638746703146055200,7.57105517578125,-0.986419677734375,-0.0589599609375,0.03759765625
1638746703156076300,7.581076171875,-0.9870758056640625,-0.058197021484375,0.03729248046875
1638746703166098400,7.591098388671875,-0.988128662109375,-0.0589752197265625,0.0374755859375
1638746703176119300,7.601119384765625,-0.9873809814453125,-0.0586090087890625,0.036651611328125
1638746703186141200,7.61114111328125,-0.988677978515625,-0.0586395263671875,0.0371856689453125
1638746703196162300,7.621162353515625,-0.9885101318359375,-0.058258056640625,0.0366973876953125
1638746703206184200,7.63118408203125,-0.9870758056640625,-0.058990478515625,0.0358428955078125
1638746703216205000,7.641205078125,-0.98834228515625,-0.05828857421875,0.036468505859375
1638746703226227200,7.651227294921875,-0.9881744384765625,-0.0579681396484375,0.0354766845703125
1638746703236248300,7.661248291015625,-0.9873504638671875,-0.05804443359375,0.036651611328125
1638746703246270200,7.671270263671875,-0.98712158203125,-0.0585174560546875,0.0357666015625
1638746703256291000,7.681291015625,-0.988677978515625,-0.0584869384765625,0.0357208251953125
1638746703266313200,7.691313232421875,-0.988983154296875,-0.0582122802734375,0.03668212890625
1638746703276334300,7.701334228515625,-0.98828125,-0.05889892578125,0.037322998046875
1638746703286356200,7.711356201171875,-0.9870758056640625,-0.0584564208984375,0.0364227294921875
1638746703296377000,7.721377197265625,-0.9866943359375,-0.05889892578125,0.036163330078125
1638746703306399200,7.731399169921875,-0.9872894287109375,-0.0583343505859375,0.0370941162109375
1638746703316420400,7.74142041015625,-0.9888153076171875,-0.05828857421875,0.036224365234375
1638746703326442200,7.751442138671875,-0.988372802734375,-0.058502197265625,0.036529541015625
1638746703336463000,7.761463134765625,-0.987945556640625,-0.0579986572265625,0.03643798828125
1638746703346484200,7.771484130859375,-0.9867095947265625,-0.0588531494140625,0.036102294921875
1638746703356506400,7.78150634765625,-0.9869384765625,-0.0582122802734375,0.0367584228515625
1638746703366527200,7.79152734375,-0.987274169921875,-0.058349609375,0.036865234375
1638746703376549000,7.801549072265625,-0.987152099609375,-0.0595855712890625,0.0358734130859375
1638746703386570200,7.8115703125,-0.9883270263671875,-0.0588531494140625,0.0367584228515625
1638746703396592000,7.821592041015625,-0.9898223876953125,-0.05841064453125,0.0370330810546875
1638746703406613200,7.83161328125,-0.9886322021484375,-0.0586700439453125,0.03717041015625
1638746703416635400,7.841635498046875,-0.9876251220703125,-0.0587005615234375,0.03662109375
1638746703426656300,7.85165625,-0.98760986328125,-0.0582427978515625,0.036590576171875
1638746703436678100,7.86167822265625,-0.987518310546875,-0.0583343505859375,0.035614013671875
1638746703446699300,7.87169921875,-0.988037109375,-0.0584259033203125,0.0363311767578125
1638746703456721400,7.881721435546875,-0.9871368408203125,-0.0584716796875,0.0363922119140625
1638746703466742300,7.8917421875,-0.9874725341796875,-0.0581817626953125,0.0361785888671875
1638746703476764200,7.90176416015625,-0.9877471923828125,-0.0580902099609375,0.0370941162109375
1638746703486785300,7.911785400390625,-0.9879302978515625,-0.0592803955078125,0.0366973876953125
1638746703496807400,7.921807373046875,-0.98883056640625,-0.0590362548828125,0.0355987548828125
1638746703506828300,7.931828369140625,-0.98748779296875,-0.0584259033203125,0.035675048828125
1638746703516850200,7.94185009765625,-0.986572265625,-0.057861328125,0.036468505859375
1638746703526871300,7.951871337890625,-0.986785888671875,-0.0583953857421875,0.0373382568359375
1638746703536893200,7.96189306640625,-0.987457275390625,-0.058502197265625,0.036712646484375
1638746703546914300,7.971914306640625,-0.98785400390625,-0.0583953857421875,0.0370941162109375
1638746703556936200,7.981936279296875,-0.988189697265625,-0.0579681396484375,0.03704833984375
1638746703566957300,7.991957275390625,-0.988372802734375,-0.05780029296875,0.035980224609375
1638746703576979200,8.001979248046876,-0.9882659912109375,-0.058563232421875,0.0366363525390625
1638746703587000000,8.012,-0.9882354736328125,-0.058746337890625,0.036956787109375
1638746703597021400,8.022021484375,-0.9876861572265625,-0.059173583984375,0.0372161865234375
1638746703607043300,8.032043212890626,-0.9875030517578125,-0.0593414306640625,0.0365447998046875
1638746703617064200,8.042064208984375,-0.9878082275390625,-0.05963134765625,0.0365447998046875
1638746703627086000,8.052086181640625,-0.9878387451171875,-0.058990478515625,0.03656005859375
1638746703637107200,8.062107177734376,-0.98822021484375,-0.0591278076171875,0.0369720458984375
1638746703647129300,8.07212939453125,-0.9884033203125,-0.058746337890625,0.035552978515625
1638746703657150200,8.082150146484375,-0.9871978759765625,-0.0586090087890625,0.036407470703125
1638746703667172000,8.092172119140624,-0.986358642578125,-0.0583648681640625,0.0364990234375
1638746703677193200,8.102193115234375,-0.987060546875,-0.0574798583984375,0.0364532470703125
1638746703687215400,8.11221533203125,-0.988250732421875,-0.0580291748046875,0.0368499755859375
1638746703697236200,8.122236328125,-0.9875946044921875,-0.058563232421875,0.0374603271484375
1638746703707258000,8.132258056640625,-0.9877166748046875,-0.0597991943359375,0.0366973876953125
1638746703717279200,8.142279296875,-0.9879913330078125,-0.05963134765625,0.0370635986328125
1638746703727301000,8.152301025390624,-0.988037109375,-0.05877685546875,0.0365753173828125
1638746703737322200,8.162322265625,-0.98773193359375,-0.05841064453125,0.03607177734375
1638746703747344100,8.17234423828125,-0.987640380859375,-0.0588226318359375,0.0376739501953125
1638746703757365200,8.182365234375,-0.9871978759765625,-0.05841064453125,0.037322998046875
1638746703767387100,8.19238720703125,-0.987457275390625,-0.0582275390625,0.0361785888671875
1638746703777408000,8.202407958984375,-0.9859619140625,-0.0580902099609375,0.03704833984375
1638746703787430400,8.212430419921875,-0.987213134765625,-0.0581207275390625,0.0370025634765625
1638746703797451300,8.222451171875,-0.9883575439453125,-0.058135986328125,0.037078857421875
1638746703807473200,8.23247314453125,-0.9872589111328125,-0.0577545166015625,0.037109375
1638746703817494300,8.242494384765624,-0.9878387451171875,-0.05828857421875,0.0369415283203125
1638746703827515100,8.25251513671875,-0.9884185791015625,-0.058349609375,0.03778076171875
1638746703837537300,8.262537353515626,-0.9882354736328125,-0.0594329833984375,0.0360870361328125
1638746703847558100,8.27255810546875,-0.987640380859375,-0.0589599609375,0.037506103515625
1638746703857580300,8.282580322265625,-0.987152099609375,-0.0597991943359375,0.0373077392578125
1638746703867601700,8.2926015625,-0.986785888671875,-0.0587615966796875,0.0377044677734375
1638746703877623800,8.302623779296875,-0.9882965087890625,-0.059295654296875,0.037322998046875
1638746703887644700,8.312644775390625,-0.9876251220703125,-0.058837890625,0.0368499755859375
1638746703897666800,8.322666748046874,-0.987579345703125,-0.05865478515625,0.036590576171875
1638746703907687700,8.332687744140625,-0.9886474609375,-0.057861328125,0.03662109375
1638746703917709800,8.342709716796875,-0.9882659912109375,-0.0579681396484375,0.0359039306640625
1638746703927730700,8.352730712890626,-0.9876708984375,-0.0574798583984375,0.035980224609375
1638746703937752800,8.3627529296875,-0.98779296875,-0.058319091796875,0.0366363525390625
1638746703947773700,8.372773681640625,-0.987335205078125,-0.05853271484375,0.0370635986328125
1638746703957795600,8.382795654296874,-0.9878997802734375,-0.05914306640625,0.036895751953125
1638746703967816700,8.392816650390625,-0.9879608154296875,-0.058807373046875,0.036865234375
1638746703977838800,8.4028388671875,-0.988006591796875,-0.06060791015625,0.036529541015625
1638746703987859700,8.412859619140624,-0.98663330078125,-0.0585174560546875,0.03607177734375
1638746703997881600,8.422881591796875,-0.986541748046875,-0.058502197265625,0.0365753173828125
1638746704007902700,8.43290283203125,-0.987274169921875,-0.0593414306640625,0.0360870361328125
1638746704017924900,8.4429248046875,-0.9883270263671875,-0.0586090087890625,0.03656005859375
1638746704027945700,8.45294580078125,-0.9882049560546875,-0.058074951171875,0.03692626953125
1638746704037967600,8.462967529296876,-0.988861083984375,-0.057830810546875,0.03607177734375
1638746704047988700,8.47298876953125,-0.9879150390625,-0.058319091796875,0.036773681640625
1638746704058009600,8.483009521484375,-0.9866790771484375,-0.0576171875,0.0375518798828125
1638746704068031700,8.49303173828125,-0.98651123046875,-0.059295654296875,0.0370330810546875
1638746704078052900,8.503052978515624,-0.9870758056640625,-0.059173583984375,0.0368194580078125
1638746704088074800,8.51307470703125,-0.988372802734375,-0.0594940185546875,0.037445068359375
1638746704098095600,8.523095703125,-0.9886932373046875,-0.059295654296875,0.0362396240234375
1638746704108117800,8.53311767578125,-0.9886932373046875,-0.0590667724609375,0.03607177734375
1638746704118139000,8.543138916015625,-0.9880218505859375,-0.05889892578125,0.03594970703125
1638746704128160800,8.553160888671876,-0.9884185791015625,-0.0593414306640625,0.0362548828125
1638746704138181600,8.563181640625,-0.9873199462890625,-0.0587921142578125,0.037567138671875
1638746704148203800,8.573203857421875,-0.98760986328125,-0.05767822265625,0.03668212890625
1638746704158225000,8.583224853515626,-0.98748779296875,-0.05804443359375,0.0367584228515625
1638746704168246800,8.593246826171875,-0.987884521484375,-0.058135986328125,0.0371856689453125
1638746704178267600,8.603267578125,-0.98760986328125,-0.058502197265625,0.037017822265625
1638746704188289500,8.61328955078125,-0.9881591796875,-0.05865478515625,0.0368804931640625
1638746704198311000,8.623310791015625,-0.9881591796875,-0.05908203125,0.0363311767578125
1638746704208332800,8.633332763671875,-0.987091064453125,-0.0578155517578125,0.036834716796875
1638746704218353700,8.643353759765626,-0.987335205078125,-0.058837890625,0.037353515625
1638746704228375600,8.65337548828125,-0.9871063232421875,-0.058685302734375,0.0369720458984375
1638746704238396700,8.663396728515625,-0.987579345703125,-0.0584259033203125,0.0372161865234375
1638746704248418800,8.673418701171874,-0.98687744140625,-0.0584869384765625,0.03729248046875
1638746704258439700,8.683439697265625,-0.988006591796875,-0.0589599609375,0.0373382568359375
1638746704268461800,8.6934619140625,-0.9891815185546875,-0.057891845703125,0.037200927734375
1638746704278482700,8.703482666015624,-0.9873809814453125,-0.058990478515625,0.03594970703125
1638746704288503600,8.713503662109375,-0.9881439208984375,-0.0587158203125,0.0369720458984375
1638746704298525700,8.723525634765625,-0.9883270263671875,-0.0585784912109375,0.0360565185546875
1638746704308546800,8.733546875,-0.9871368408203125,-0.05810546875,0.0365447998046875
1638746704318568700,8.743568603515625,-0.987762451171875,-0.0582427978515625,0.0374603271484375
1638746704328589600,8.753589599609375,-0.987335205078125,-0.0588531494140625,0.0385589599609375
1638746704338612000,8.763612060546874,-0.9872589111328125,-0.05914306640625,0.0374755859375
1638746704348632800,8.7736328125,-0.9884490966796875,-0.0587615966796875,0.036590576171875
1638746704358654700,8.78365478515625,-0.9884490966796875,-0.0579681396484375,0.036834716796875
1638746704368675600,8.793675537109374,-0.9886474609375,-0.057769775390625,0.0362091064453125
1638746704378697700,8.80369775390625,-0.9877166748046875,-0.058380126953125,0.0368804931640625
1638746704388718800,8.81371875,-0.9874267578125,-0.057586669921875,0.0366363525390625
1638746704398740700,8.82374072265625,-0.9884185791015625,-0.05810546875,0.0372161865234375
1638746704408761900,8.833761962890625,-0.988616943359375,-0.058349609375,0.0370025634765625
1638746704418783700,8.84378369140625,-0.987945556640625,-0.05902099609375,0.0377044677734375
1638746704428804600,8.8538046875,-0.9884796142578125,-0.058807373046875,0.0366058349609375
1638746704438826800,8.86382666015625,-0.9869232177734375,-0.058746337890625,0.03668212890625
1638746704448848000,8.873847900390626,-0.986480712890625,-0.0586700439453125,0.03594970703125
1638746704458869800,8.883869873046875,-0.9876556396484375,-0.0587158203125,0.037689208984375
1638746704468890600,8.893890625,-0.987548828125,-0.058135986328125,0.0370635986328125
1638746704478912800,8.903912841796876,-0.9879302978515625,-0.0579681396484375,0.0363311767578125
1638746704488934000,8.913933837890625,-0.988677978515625,-0.0580596923828125,0.0370635986328125
1638746704498954800,8.923954833984375,-0.9876861572265625,-0.0585479736328125,0.036865234375
1638746704508976600,8.9339765625,-0.9876708984375,-0.0584869384765625,0.03662109375
1638746704518997800,8.943997802734375,-0.988006591796875,-0.05914306640625,0.037445068359375
1638746704529020000,8.95402001953125,-0.9878997802734375,-0.058380126953125,0.036895751953125
1638746704539040800,8.964040771484376,-0.9881744384765625,-0.058197021484375,0.036834716796875
1638746704549062700,8.974062744140625,-0.98797607421875,-0.0589141845703125,0.0370330810546875
1638746704559083800,8.984083740234375,-0.9865264892578125,-0.05902099609375,0.03717041015625
1638746704569105700,8.994105712890626,-0.987335205078125,-0.0589141845703125,0.0369415283203125
1638746704579126800,9.004126708984375,-0.9872283935546875,-0.057891845703125,0.03656005859375
1638746704589148700,9.014148681640625,-0.987762451171875,-0.0577392578125,0.0362091064453125
1638746704599169800,9.024169677734376,-0.988128662109375,-0.058197021484375,0.03692626953125
1638746704609191700,9.034191650390625,-0.986968994140625,-0.0582122802734375,0.0363922119140625
1638746704619212500,9.044212646484375,-0.9870758056640625,-0.058563232421875,0.0356903076171875
1638746704629234700,9.054234619140624,-0.9880828857421875,-0.0588531494140625,0.037017822265625
1638746704639255800,9.064255859375,-0.987335205078125,-0.0585479736328125,0.0374908447265625
1638746704649277700,9.074277587890625,-0.987762451171875,-0.0587158203125,0.0366058349609375
1638746704659298600,9.084298583984374,-0.98834228515625,-0.0587310791015625,0.037017822265625
1638746704669320700,9.09432080078125,-0.9872589111328125,-0.0585479736328125,0.0379791259765625
1638746704679341800,9.104341796875,-0.9871063232421875,-0.0585174560546875,0.037689208984375
1638746704689363700,9.11436376953125,-0.9866790771484375,-0.0586090087890625,0.0375213623046875
1638746704699384600,9.124384521484375,-0.9877777099609375,-0.0587158203125,0.0369110107421875
1638746704709407000,9.134406982421876,-0.98779296875,-0.05816650390625,0.036712646484375
1638746704719427800,9.144427734375,-0.988311767578125,-0.057342529296875,0.0373382568359375
1638746704729448700,9.15444873046875,-0.9871826171875,-0.0584716796875,0.0375213623046875
1638746704739470800,9.164470947265626,-0.9879913330078125,-0.05914306640625,0.037353515625
1638746704749491700,9.17449169921875,-0.98760986328125,-0.0584869384765625,0.037109375
1638746704759513900,9.184513916015625,-0.988616943359375,-0.058563232421875,0.0377197265625
1638746704769534700,9.19453466796875,-0.9888916015625,-0.0587158203125,0.037445068359375
1638746704779556900,9.204556884765625,-0.9874267578125,-0.0593719482421875,0.0378875732421875
1638746704789577700,9.21457763671875,-0.986724853515625,-0.0588531494140625,0.0364532470703125
1638746704799599600,9.224599609375,-0.9879150390625,-0.0587005615234375,0.03729248046875
1638746704809620700,9.234620849609374,-0.98748779296875,-0.05828857421875,0.0373382568359375
1638746704819643000,9.244642822265625,-0.98828125,-0.058319091796875,0.0360565185546875
1638746704829663700,9.254663818359376,-0.9885711669921875,-0.0579986572265625,0.0365447998046875
1638746704839685600,9.264685546875,-0.9873809814453125,-0.0582427978515625,0.0368194580078125
1638746704849706800,9.274706787109375,-0.987884521484375,-0.058837890625,0.0366058349609375
1638746704859729000,9.28472900390625,-0.98779296875,-0.0591888427734375,0.0362091064453125
1638746704869749500,9.29474951171875,-0.9871063232421875,-0.0586090087890625,0.0367889404296875
1638746704879771400,9.304771484375,-0.988555908203125,-0.0583953857421875,0.0366363525390625
1638746704889792500,9.31479248046875,-0.987396240234375,-0.0587921142578125,0.0367279052734375
1638746704899814700,9.324814697265625,-0.987335205078125,-0.0589599609375,0.0367889404296875
1638746704909835500,9.33483544921875,-0.9874725341796875,-0.05889892578125,0.037689208984375
1638746704919857400,9.344857421875,-0.986083984375,-0.0579071044921875,0.037139892578125
1638746704929878500,9.35487841796875,-0.987640380859375,-0.0581817626953125,0.037811279296875
1638746704939900400,9.364900390625,-0.9883270263671875,-0.057586669921875,0.037109375
1638746704949921300,9.37492138671875,-0.9869537353515625,-0.058624267578125,0.036407470703125
1638746704959942700,9.384942626953125,-0.987548828125,-0.05841064453125,0.0373077392578125
1638746704969964500,9.394964599609375,-0.987945556640625,-0.0582275390625,0.03753662109375
1638746704979985400,9.4049853515625,-0.986602783203125,-0.0587005615234375,0.0369720458984375
1638746704990007300,9.41500732421875,-0.98663330078125,-0.059234619140625,0.0376434326171875
1638746705000028400,9.4250283203125,-0.987274169921875,-0.0589141845703125,0.037078857421875
1638746705010050600,9.435050537109374,-0.9871368408203125,-0.0592041015625,0.03692626953125
1638746705020071400,9.445071533203125,-0.9875030517578125,-0.058258056640625,0.0369873046875
1638746705030093300,9.45509326171875,-0.987945556640625,-0.05926513671875,0.0372161865234375
1638746705040114400,9.465114501953124,-0.9872894287109375,-0.0586395263671875,0.0371551513671875
1638746705050136600,9.475136474609375,-0.9876556396484375,-0.0574951171875,0.0362396240234375
1638746705060157400,9.485157470703125,-0.9882965087890625,-0.057281494140625,0.0370941162109375
1638746705070179600,9.4951796875,-0.9884185791015625,-0.057220458984375,0.0372314453125
1638746705080200400,9.505200439453125,-0.9880523681640625,-0.058441162109375,0.0373382568359375
1638746705090222600,9.51522265625,-0.9879302978515625,-0.0584259033203125,0.037750244140625
1638746705100243500,9.525243408203124,-0.9878387451171875,-0.0589447021484375,0.037353515625
1638746705110265600,9.535265625,-0.9880523681640625,-0.0588531494140625,0.0374908447265625
1638746705120286500,9.545286376953126,-0.9880218505859375,-0.0592041015625,0.036468505859375
1638746705130308400,9.555308349609374,-0.9876251220703125,-0.058563232421875,0.0375518798828125
1638746705140329500,9.56532958984375,-0.988800048828125,-0.057769775390625,0.03717041015625
1638746705150351600,9.5753515625,-0.988067626953125,-0.0577392578125,0.03717041015625
1638746705160372500,9.58537255859375,-0.986419677734375,-0.057525634765625,0.037200927734375
1638746705170393300,9.595393310546875,-0.9871368408203125,-0.0581512451171875,0.0374908447265625
1638746705180415500,9.60541552734375,-0.986663818359375,-0.0584564208984375,0.036865234375
1638746705190436600,9.6154365234375,-0.9876861572265625,-0.0578765869140625,0.0365447998046875
1638746705200458500,9.62545849609375,-0.9876556396484375,-0.0580291748046875,0.037567138671875
1638746705210479600,9.635479736328126,-0.986907958984375,-0.05853271484375,0.03790283203125
1638746705220501500,9.64550146484375,-0.9879913330078125,-0.0583343505859375,0.0378265380859375
1638746705230522400,9.6555224609375,-0.98687744140625,-0.0599212646484375,0.0379180908203125
1638746705240544500,9.66554443359375,-0.9868011474609375,-0.0592041015625,0.0373992919921875
1638746705250565600,9.675565673828125,-0.9868621826171875,-0.0592041015625,0.036956787109375
1638746705260587500,9.68558740234375,-0.9887237548828125,-0.058441162109375,0.03570556640625
1638746705270608400,9.6956083984375,-0.990753173828125,-0.057220458984375,0.034515380859375
1638746705280630500,9.705630615234375,-0.990325927734375,-0.057281494140625,0.0351104736328125
1638746705290651600,9.715651611328125,-0.9879302978515625,-0.0577850341796875,0.0348663330078125
1638746705300673500,9.725673583984374,-0.9863433837890625,-0.05804443359375,0.036407470703125
1638746705310694400,9.7356943359375,-0.9856414794921875,-0.0588531494140625,0.0377960205078125
1638746705320716300,9.74571630859375,-0.98675537109375,-0.0596160888671875,0.0379638671875
1638746705330737700,9.755737548828124,-0.9874420166015625,-0.059417724609375,0.039703369140625
1638746705340759600,9.765759521484375,-0.986846923828125,-0.06011962890625,0.0402069091796875
1638746705350780400,9.775780517578125,-0.9875030517578125,-0.0599822998046875,0.0389404296875
1638746705360802300,9.78580224609375,-0.9883575439453125,-0.0587615966796875,0.03680419921875
1638746705370823400,9.795823486328125,-0.9906463623046875,-0.05767822265625,0.0343170166015625
1638746705380844500,9.805844482421875,-0.990570068359375,-0.057861328125,0.0338592529296875
1638746705390866400,9.815866455078124,-0.988739013671875,-0.057098388671875,0.0332794189453125
1638746705400887600,9.825887451171875,-0.986358642578125,-0.0576324462890625,0.036102294921875
1638746705410909400,9.835909423828125,-0.983612060546875,-0.0572357177734375,0.036712646484375
1638746705420930300,9.845930419921874,-0.98583984375,-0.0586090087890625,0.0384674072265625
1638746705430952400,9.855952392578125,-0.987091064453125,-0.0595245361328125,0.0396575927734375
1638746705440973600,9.8659736328125,-0.98919677734375,-0.0596771240234375,0.0393218994140625
1638746705450995500,9.875995361328124,-0.9901123046875,-0.059722900390625,0.03948974609375
1638746705461016300,9.886016357421875,-0.989593505859375,-0.058929443359375,0.03900146484375
1638746705471038500,9.89603857421875,-0.98760986328125,-0.058807373046875,0.0374603271484375
1638746705481059600,9.9060595703125,-0.986602783203125,-0.057647705078125,0.03717041015625
1638746705491081500,9.91608154296875,-0.9856719970703125,-0.0572509765625,0.0359954833984375
1638746705501102300,9.926102294921876,-0.98614501953125,-0.057220458984375,0.03509521484375
1638746705511124500,9.93612451171875,-0.988861083984375,-0.0577239990234375,0.0352783203125
1638746705521145600,9.9461455078125,-0.9886932373046875,-0.05706787109375,0.0354156494140625
1638746705531167500,9.95616748046875,-0.98773193359375,-0.0584564208984375,0.03643798828125
1638746705541188400,9.966188232421874,-0.98797607421875,-0.0587310791015625,0.0378875732421875
1638746705551210500,9.97621044921875,-0.987457275390625,-0.058074951171875,0.0386810302734375
1638746705561231400,9.9862314453125,-0.9874267578125,-0.05859375,0.038818359375
1638746705571253500,9.99625341796875,-0.988128662109375,-0.05908203125,0.0389556884765625
1638746705581274600,10.006274658203125,-0.987823486328125,-0.0589599609375,0.037689208984375
1638746705591296500,10.016296630859374,-0.987091064453125,-0.0585784912109375,0.0364837646484375
1638746705601317400,10.0263173828125,-0.9877777099609375,-0.058197021484375,0.0355224609375
1638746705611339500,10.036339599609375,-0.9875946044921875,-0.057952880859375,0.034332275390625
1638746705621360600,10.046360595703124,-0.98736572265625,-0.0585479736328125,0.0355224609375
1638746705631381500,10.056381591796875,-0.9865570068359375,-0.0586700439453125,0.03717041015625
1638746705641403400,10.0664033203125,-0.986846923828125,-0.0581207275390625,0.037689208984375
1638746705651424500,10.076424560546876,-0.9855804443359375,-0.058807373046875,0.0391693115234375
1638746705661446700,10.08644677734375,-0.985748291015625,-0.05938720703125,0.0401153564453125
1638746705671467500,10.096467529296875,-0.987579345703125,-0.059906005859375,0.040374755859375
1638746705681489400,10.106489501953124,-0.9868316650390625,-0.0601348876953125,0.0393829345703125
1638746705691510500,10.116510498046875,-0.9875030517578125,-0.0594635009765625,0.0361175537109375
1638746705701532700,10.12653271484375,-0.9897003173828125,-0.059326171875,0.035736083984375
1638746705711553500,10.136553466796874,-0.991058349609375,-0.0560455322265625,0.0329742431640625
1638746705721575400,10.146575439453125,-0.9918670654296875,-0.054931640625,0.03253173828125
1638746705731596500,10.156596435546875,-0.9903717041015625,-0.054931640625,0.0323486328125
1638746705741618400,10.166618408203124,-0.9877777099609375,-0.056060791015625,0.0350494384765625
1638746705751639600,10.1766396484375,-0.9852142333984375,-0.0576171875,0.037200927734375
1638746705761661400,10.186661376953126,-0.98443603515625,-0.0576324462890625,0.038482666015625
1638746705771682600,10.1966826171875,-0.9877166748046875,-0.0590057373046875,0.0382537841796875
1638746705781704400,10.206704345703125,-0.9899749755859375,-0.060150146484375,0.04010009765625
1638746705791725300,10.216725341796876,-0.9898834228515625,-0.060577392578125,0.03997802734375
1638746705801747500,10.22674755859375,-0.98736572265625,-0.06048583984375,0.040130615234375
1638746705811768600,10.2367685546875,-0.986572265625,-0.060333251953125,0.0385894775390625
1638746705821790500,10.24679052734375,-0.9856719970703125,-0.059326171875,0.03741455078125
1638746705831811300,10.256811279296874,-0.986236572265625,-0.0579986572265625,0.0357208251953125
1638746705841832400,10.26683251953125,-0.98809814453125,-0.056365966796875,0.035125732421875
1638746705851854600,10.2768544921875,-0.9881134033203125,-0.057159423828125,0.035614013671875
1638746705861875500,10.28687548828125,-0.9879608154296875,-0.057220458984375,0.0358123779296875
1638746705871897000,10.29689697265625,-0.986968994140625,-0.0577545166015625,0.0372314453125
1638746705881918000,10.30691796875,-0.986724853515625,-0.05877685546875,0.038177490234375
1638746705891939800,10.31693994140625,-0.9854888916015625,-0.0597991943359375,0.03814697265625
1638746705901961000,10.3269609375,-0.9873504638671875,-0.0596771240234375,0.0382080078125
1638746705911983000,10.336983154296876,-0.99005126953125,-0.0596160888671875,0.0377349853515625
1638746705922004000,10.34700390625,-0.992584228515625,-0.0585479736328125,0.0368499755859375
1638746705932025900,10.35702587890625,-0.9897918701171875,-0.0581512451171875,0.0358734130859375
1638746705942047000,10.367046875,-0.9889984130859375,-0.0575408935546875,0.0338897705078125
1638746705952068900,10.37706884765625,-0.9867706298828125,-0.057403564453125,0.0342864990234375
1638746705962090000,10.387090087890625,-0.9854278564453125,-0.05828857421875,0.0360565185546875
1638746705972112000,10.39711181640625,-0.984893798828125,-0.0577392578125,0.0376739501953125
1638746705982133000,10.407133056640625,-0.9857940673828125,-0.0576934814453125,0.0373077392578125
1638746705992155000,10.41715478515625,-0.989227294921875,-0.0582122802734375,0.037506103515625
1638746706002175700,10.42717578125,-0.99212646484375,-0.058349609375,0.0360260009765625
1638746706012198000,10.437197998046875,-0.992767333984375,-0.05841064453125,0.0364837646484375
1638746706022219000,10.447218994140625,-0.98974609375,-0.0582275390625,0.0373382568359375
1638746706032241000,10.457240966796874,-0.9840545654296875,-0.059234619140625,0.0384979248046875
1638746706042261800,10.46726171875,-0.981719970703125,-0.0601043701171875,0.0377349853515625
1638746706052283000,10.477282958984375,-0.9841461181640625,-0.058837890625,0.0377197265625
1638746706062305000,10.487304931640624,-0.9875946044921875,-0.0591583251953125,0.0374298095703125
1638746706072326000,10.497325927734375,-0.9901275634765625,-0.0584259033203125,0.036773681640625
1638746706082347800,10.50734765625,-0.9905548095703125,-0.0577850341796875,0.0360870361328125
1638746706092369000,10.517368896484374,-0.98883056640625,-0.057098388671875,0.03570556640625
1638746706102391000,10.52739111328125,-0.9875640869140625,-0.0571136474609375,0.0362396240234375
1638746706112412000,10.537411865234375,-0.986480712890625,-0.057586669921875,0.0361785888671875
1638746706122433800,10.547433837890624,-0.986480712890625,-0.0572662353515625,0.0372314453125
1638746706132455000,10.557454833984375,-0.9871368408203125,-0.058868408203125,0.0390167236328125
1638746706142476800,10.567476806640625,-0.9857330322265625,-0.059478759765625,0.038970947265625
1638746706152498000,10.577497802734374,-0.9867095947265625,-0.059417724609375,0.037933349609375
1638746706162519800,10.587519775390625,-0.98974609375,-0.059326171875,0.0363922119140625
1638746706172541000,10.597541015625,-0.9915618896484375,-0.058746337890625,0.0350799560546875
1638746706182562800,10.607562744140624,-0.991058349609375,-0.05859375,0.0357818603515625
1638746706192583700,10.617583740234375,-0.9879608154296875,-0.0580291748046875,0.0370941162109375
1638746706202606000,10.627606201171876,-0.98291015625,-0.057861328125,0.03839111328125
1638746706212627000,10.637626953125,-0.982757568359375,-0.058746337890625,0.0376739501953125
1638746706222648800,10.64764892578125,-0.9851837158203125,-0.0587310791015625,0.036407470703125
1638746706232670000,10.657669921875,-0.989837646484375,-0.0583038330078125,0.036865234375
1638746706242692000,10.667692138671875,-0.9931182861328125,-0.0571136474609375,0.036224365234375
1638746706252713000,10.677712890625,-0.9915618896484375,-0.0582275390625,0.035858154296875
1638746706262734800,10.68773486328125,-0.9880828857421875,-0.05810546875,0.035919189453125
1638746706272756000,10.697755859375,-0.98638916015625,-0.0571441650390625,0.0361328125
1638746706282776800,10.70777685546875,-0.985870361328125,-0.0585784912109375,0.0379180908203125
1638746706292799000,10.717799072265626,-0.984375,-0.0597076416015625,0.0382843017578125
1638746706302819800,10.72781982421875,-0.985809326171875,-0.059600830078125,0.0391693115234375
1638746706312842000,10.737842041015625,-0.987823486328125,-0.059783935546875,0.03924560546875
1638746706322862800,10.74786279296875,-0.9877471923828125,-0.0596923828125,0.0398406982421875
1638746706332884700,10.757884765625,-0.9877777099609375,-0.0589141845703125,0.0390777587890625
1638746706342906000,10.767906005859375,-0.987762451171875,-0.0584564208984375,0.03717041015625
1638746706352928000,10.777927978515624,-0.9885711669921875,-0.0579376220703125,0.03521728515625
1638746706362948900,10.787948974609375,-0.9899139404296875,-0.0563201904296875,0.0335845947265625
1638746706372970800,10.797970703125,-0.9907073974609375,-0.055450439453125,0.0324554443359375
1638746706382992000,10.807991943359376,-0.99102783203125,-0.055999755859375,0.032806396484375
1638746706393014000,10.818013916015625,-0.98724365234375,-0.0579986572265625,0.0347900390625
1638746706403035000,10.828034912109375,-0.984039306640625,-0.0588226318359375,0.037872314453125
1638746706413056800,10.838056884765624,-0.982147216796875,-0.059173583984375,0.0393524169921875
1638746706423078000,10.848077880859375,-0.9832763671875,-0.061248779296875,0.0406646728515625
1638746706433100000,10.85810009765625,-0.9868316650390625,-0.060211181640625,0.041717529296875
1638746706443121000,10.868120849609374,-0.990081787109375,-0.0594329833984375,0.039306640625
1638746706453142800,10.878142822265625,-0.9923095703125,-0.0581512451171875,0.036224365234375
1638746706463164000,10.888163818359375,-0.99224853515625,-0.05645751953125,0.032379150390625
1638746706473184800,10.898184814453124,-0.991241455078125,-0.056396484375,0.0296173095703125
1638746706483207000,10.90820703125,-0.9865264892578125,-0.0565643310546875,0.030426025390625
1638746706493228000,10.91822802734375,-0.9814910888671875,-0.0568084716796875,0.0306396484375
1638746706503250000,10.92825,-0.979705810546875,-0.0587005615234375,0.0269317626953125
1638746706513270800,10.938270751953125,-0.9830322265625,-0.0594329833984375,0.02178955078125
1638746706523293000,10.94829296875,-0.985260009765625,-0.0615081787109375,0.0171966552734375
1638746706533314000,10.95831396484375,-0.9838409423828125,-0.0605926513671875,0.01983642578125
1638746706543336000,10.9683359375,-0.9834442138671875,-0.057159423828125,0.02325439453125
1638746706553356800,10.978356689453125,-0.9871368408203125,-0.0569305419921875,0.0145721435546875
1638746706563378700,10.988378662109374,-0.991973876953125,-0.0577392578125,0.0087890625
1638746706573400000,10.998400146484375,-0.9986419677734375,-0.0545806884765625,0.0208282470703125
1638746706583422000,11.008421875,-0.9983062744140625,-0.053497314453125,0.0263824462890625
1638746706593442800,11.01844287109375,-0.992401123046875,-0.051239013671875,0.03076171875
1638746706603465000,11.02846484375,-0.985931396484375,-0.0507049560546875,0.0315093994140625
1638746706613485800,11.03848583984375,-0.9845123291015625,-0.05255126953125,0.034210205078125
1638746706623508000,11.048508056640625,-0.984130859375,-0.058746337890625,0.0398101806640625
1638746706633528800,11.05852880859375,-0.9821319580078125,-0.061614990234375,0.0482940673828125
1638746706643551000,11.068551025390626,-0.9844207763671875,-0.0616302490234375,0.0529022216796875
1638746706653571800,11.07857177734375,-0.988616943359375,-0.0571746826171875,0.0574188232421875
1638746706663592700,11.0885927734375,-0.992828369140625,-0.0510101318359375,0.0607452392578125
1638746706673615000,11.098614990234376,-0.9932708740234375,-0.0445556640625,0.0578765869140625
1638746706683636000,11.108635986328125,-0.9914093017578125,-0.0460205078125,0.0290985107421875
1638746706693657900,11.118657958984375,-0.99365234375,-0.049835205078125,0.0452117919921875
1638746706703678700,11.1286787109375,-0.993255615234375,-0.06072998046875,0.052886962890625
1638746706713701000,11.138701171875,-0.98846435546875,-0.0590362548828125,0.0440216064453125
1638746706723722000,11.148721923828125,-0.98870849609375,-0.0584716796875,0.04779052734375
1638746706733743900,11.158743896484374,-0.9818878173828125,-0.080078125,0.05145263671875
1638746706743765000,11.168764892578125,-0.964202880859375,-0.0704193115234375,0.06243896484375
1638746706753787000,11.178786865234375,-0.9616851806640625,-0.0385589599609375,0.05633544921875
1638746706763808000,11.18880810546875,-0.9739990234375,-0.02716064453125,0.049835205078125
1638746706773830000,11.198829833984375,-0.999298095703125,-0.040771484375,0.0704193115234375
1638746706783851000,11.20885107421875,-1.008819580078125,-0.0840911865234375,0.0617523193359375
1638746706793873000,11.218872802734374,-1.00634765625,-0.091094970703125,0.0923919677734375
1638746706803893800,11.228893798828125,-1.0162353515625,-0.05633544921875,0.1380157470703125
1638746706813916000,11.238916015625,-1.0562591552734375,-0.0781707763671875,0.14788818359375
1638746706823937000,11.24893701171875,-1.1178741455078125,-0.11004638671875,0.1240081787109375
1638746706833959000,11.258958984375,-1.12060546875,-0.0943145751953125,0.0394287109375
1638746706843979800,11.268979736328125,-0.9006500244140625,-0.1032562255859375,-0.0479583740234375
1638746706854002000,11.279001953125,-0.76416015625,-0.1625518798828125,-0.0698089599609375
1638746706864023000,11.28902294921875,-0.654998779296875,-0.091827392578125,-0.033447265625
1638746706874045000,11.299044921875,-0.640289306640625,0.0218658447265625,0.17877197265625
1638746706884066000,11.309066162109374,-0.877410888671875,0.108917236328125,0.4095306396484375
1638746706894087200,11.319087158203125,-1.108001708984375,0.145538330078125,0.3463287353515625
1638746706904109000,11.329109130859376,-1.1699676513671875,0.1128082275390625,0.03179931640625
1638746706914130000,11.3391298828125,-1.1479339599609375,0.015289306640625,-0.123626708984375
1638746706924151800,11.34915185546875,-1.089996337890625,-0.1027679443359375,-0.1685943603515625
1638746706934173200,11.359173095703126,-1.055572509765625,-0.19830322265625,-0.182861328125
1638746706944195000,11.369195068359375,-1.0375213623046875,-0.1990203857421875,-0.0767822265625
1638746706954216000,11.3792158203125,-1.0251922607421875,-0.1558837890625,0.0330352783203125
1638746706964237800,11.38923779296875,-1.010284423828125,-0.1279144287109375,0.076019287109375
1638746706974259000,11.399259033203125,-0.98876953125,-0.092376708984375,0.0707855224609375
1638746706984281000,11.409281005859375,-0.9669189453125,-0.04052734375,0.030303955078125
1638746706994302000,11.419302001953126,-0.9783935546875,-0.035430908203125,0.0282745361328125
1638746707004323800,11.42932373046875,-0.9987945556640625,-0.04486083984375,0.0270843505859375
1638746707014345000,11.439344970703125,-1.009002685546875,-0.050079345703125,0.044158935546875
1638746707024367000,11.4493671875,-1.014373779296875,-0.0526580810546875,0.045806884765625
1638746707034388000,11.459387939453125,-1.0135498046875,-0.0543212890625,0.05029296875
1638746707044410000,11.46941015625,-1.0002593994140625,-0.0529327392578125,0.05401611328125
1638746707054431000,11.479430908203126,-0.98590087890625,-0.0527801513671875,0.0635986328125
1638746707064452900,11.489452880859375,-0.9735870361328125,-0.0521087646484375,0.0711212158203125
1638746707074474000,11.499473876953125,-0.9461669921875,-0.04931640625,0.01763916015625
1638746707084495000,11.5094951171875,-0.9392852783203125,-0.035430908203125,-0.0028076171875
1638746707094517000,11.51951708984375,-0.9642181396484375,-0.0179901123046875,-0.0037078857421875
1638746707104537900,11.529537841796875,-1.002410888671875,-0.019439697265625,0.0236968994140625
1638746707114560000,11.53956005859375,-1.0266571044921875,-0.0308380126953125,0.04644775390625
1638746707124581000,11.5495810546875,-1.0193328857421875,-0.046142578125,0.0426483154296875
1638746707134603000,11.55960302734375,-0.99078369140625,-0.0507659912109375,0.043487548828125
1638746707144623900,11.569623779296874,-0.9683685302734375,-0.0549774169921875,0.031890869140625
1638746707154646000,11.57964599609375,-0.9575958251953125,-0.0538330078125,0.0188140869140625
1638746707164667000,11.5896669921875,-0.9664459228515625,-0.0549774169921875,0.0239105224609375
1638746707174689000,11.59968896484375,-0.98553466796875,-0.058685302734375,0.028900146484375
1638746707184710100,11.609710205078125,-0.9943084716796875,-0.062225341796875,0.0194091796875
1638746707194732000,11.61973193359375,-0.9933624267578125,-0.0622406005859375,0.02093505859375
1638746707204753000,11.6297529296875,-0.9879913330078125,-0.056854248046875,0.031494140625
1638746707214775000,11.639775146484375,-0.981414794921875,-0.0514068603515625,0.04144287109375
1638746707224796200,11.649796142578126,-0.9840850830078125,-0.0387420654296875,0.0617828369140625
1638746707234818000,11.659818115234375,-0.9845428466796875,-0.0313873291015625,0.071258544921875
1638746707244839000,11.6698388671875,-0.9811553955078125,-0.0305938720703125,0.0728912353515625
1638746707254860800,11.67986083984375,-0.989471435546875,-0.040008544921875,0.0677490234375
1638746707264882200,11.689882080078124,-0.98583984375,-0.05267333984375,0.058624267578125
1638746707274904000,11.699904052734375,-0.9745025634765625,-0.0483856201171875,0.0631866455078125
1638746707284925000,11.709925048828126,-0.98236083984375,-0.05511474609375,0.088165283203125
1638746707294946000,11.719946044921874,-1.0008087158203125,-0.0538482666015625,0.1340179443359375
1638746707304968000,11.729968017578125,-1.011627197265625,-0.05517578125,0.093231201171875
1638746707314989000,11.739989013671876,-1.020904541015625,-0.037384033203125,0.091217041015625
1638746707325011000,11.750010986328125,-1.0079193115234375,0.0043182373046875,0.053375244140625
1638746707335032000,11.760031982421875,-0.96710205078125,0.0114593505859375,0.03790283203125
1638746707345054000,11.770053955078126,-0.93450927734375,0.001495361328125,0.03912353515625
1638746707355074800,11.78007470703125,-0.940948486328125,-0.0164642333984375,0.03350830078125
1638746707365097000,11.790096923828125,-0.963470458984375,-0.02593994140625,0.036590576171875
1638746707375118000,11.8001181640625,-0.979034423828125,-0.0439910888671875,0.01715087890625
1638746707385140000,11.810139892578125,-0.988922119140625,-0.0550689697265625,0.0196075439453125
1638746707395160800,11.820160888671875,-0.996063232421875,-0.0377044677734375,0.020172119140625
1638746707405183000,11.830182861328124,-1.0176849365234375,-0.011749267578125,-0.0084075927734375
1638746707415204000,11.8402041015625,-1.030029296875,0.0398712158203125,-0.0311431884765625
1638746707425226000,11.85022607421875,-1.0395050048828125,0.073394775390625,-0.040374755859375
1638746707435246800,11.860246826171876,-1.039703369140625,0.072967529296875,-0.03472900390625
1638746707445269000,11.87026904296875,-1.0308990478515625,0.0362091064453125,-0.00750732421875
1638746707455290000,11.8802900390625,-1.01812744140625,-0.02008056640625,0.0289306640625
1638746707465312000,11.89031201171875,-0.9888916015625,-0.101959228515625,0.024322509765625
1638746707475332900,11.900332763671875,-0.993072509765625,-0.166259765625,0.024993896484375
1638746707485355000,11.91035498046875,-0.992767333984375,-0.190277099609375,0.0534820556640625
1638746707495376000,11.9203759765625,-0.950408935546875,-0.169219970703125,0.0359344482421875
1638746707505397000,11.93039697265625,-0.9350738525390625,-0.1327362060546875,0.0005950927734375
1638746707515419000,11.9404189453125,-0.913909912109375,-0.0966796875,-0.01458740234375
1638746707525440000,11.95043994140625,-0.8927001953125,-0.10540771484375,-0.0414276123046875
1638746707535462000,11.9604619140625,-0.90997314453125,-0.1317138671875,-0.020355224609375
1638746707545482800,11.970482666015625,-0.9574737548828125,-0.118927001953125,-0.0020294189453125
1638746707555505200,11.980505126953124,-1.0023193359375,-0.0930938720703125,-0.01141357421875
1638746707565526000,11.990526123046875,-1.0381317138671875,-0.0755767822265625,0.0057373046875
1638746707575548000,12.0005478515625,-1.0535888671875,-0.0640869140625,0.02032470703125
1638746707585569000,12.010569091796874,-1.0473175048828125,-0.051727294921875,0.02044677734375
1638746707595591200,12.020591064453125,-1.0214996337890625,-0.0357818603515625,0.008148193359375
1638746707605612000,12.030612060546876,-0.982696533203125,-0.013946533203125,0.009033203125
1638746707615634000,12.040634033203125,-0.94500732421875,-0.003265380859375,0.0350189208984375
1638746707625655000,12.050655029296875,-0.9263916015625,-0.0095062255859375,0.0533905029296875
1638746707635677200,12.06067724609375,-0.939605712890625,-0.03125,0.0538330078125
1638746707645698000,12.070697998046874,-0.9900665283203125,-0.0755767822265625,0.027099609375
1638746707655720000,12.080719970703125,-1.0563812255859375,-0.1322021484375,-0.04296875
1638746707665741000,12.090740966796876,-1.090972900390625,-0.1371612548828125,-0.1356964111328125
1638746707675763000,12.100762939453125,-1.0568084716796875,-0.050689697265625,-0.150421142578125
1638746707685784000,12.1107841796875,-0.99176025390625,0.0258026123046875,-0.06365966796875
1638746707695805200,12.12080517578125,-0.9426422119140625,0.0336761474609375,0.0239105224609375
1638746707705827000,12.1308271484375,-0.92498779296875,0.0145111083984375,0.0492095947265625
1638746707715848000,12.140847900390625,-0.9399871826171875,-0.0155181884765625,0.07366943359375
1638746707725869800,12.150869873046876,-0.9748382568359375,-0.032806396484375,0.1092987060546875
1638746707735891200,12.16089111328125,-1.0147705078125,-0.0481109619140625,0.125396728515625
1638746707745913000,12.1709130859375,-1.034149169921875,-0.0597991943359375,0.1200103759765625
1638746707755934000,12.180933837890626,-1.017486572265625,-0.0621490478515625,0.089874267578125
1638746707765955800,12.190955810546875,-0.9813079833984375,-0.0608978271484375,0.055419921875
1638746707775977000,12.20097705078125,-0.9570159912109375,-0.0694427490234375,0.0259246826171875
1638746707785999000,12.2109990234375,-0.95367431640625,-0.0798187255859375,0.0106048583984375
1638746707796020000,12.22102001953125,-0.9659881591796875,-0.0864410400390625,0.0104522705078125
1638746707806041900,12.231041748046875,-0.986572265625,-0.0815582275390625,0.01422119140625
1638746707816063000,12.24106298828125,-1.000396728515625,-0.0676727294921875,0.0166168212890625
1638746707826085000,12.251085205078125,-1.0033111572265625,-0.051300048828125,0.0174713134765625
1638746707836106000,12.26110595703125,-0.994720458984375,-0.03955078125,0.014923095703125
1638746707846127900,12.2711279296875,-0.986236572265625,-0.04437255859375,0.01605224609375
1638746707856149000,12.28114892578125,-0.9837493896484375,-0.0582122802734375,0.0252838134765625
1638746707866172000,12.291171875,-0.98309326171875,-0.0695648193359375,0.03753662109375
1638746707876192800,12.30119287109375,-0.9854278564453125,-0.0749359130859375,0.0471343994140625
1638746707886214700,12.311214599609375,-0.986358642578125,-0.07513427734375,0.051361083984375
1638746707896235800,12.32123583984375,-0.98681640625,-0.0679931640625,0.051239013671875
1638746707906256600,12.331256591796874,-0.9912872314453125,-0.0659637451171875,0.045440673828125
1638746707916278800,12.34127880859375,-0.99420166015625,-0.0648193359375,0.0368194580078125
1638746707926300000,12.3512998046875,-0.9950408935546875,-0.064208984375,0.028533935546875
1638746707936321800,12.36132177734375,-0.9944610595703125,-0.0638275146484375,0.020355224609375
1638746707946342700,12.3713427734375,-0.9923095703125,-0.0637664794921875,0.013458251953125
1638746707956364500,12.381364501953126,-0.9901123046875,-0.0656280517578125,0.0089111328125
1638746707966386000,12.391385986328125,-0.985687255859375,-0.0657958984375,0.0090179443359375
1638746707976407800,12.40140771484375,-0.9857025146484375,-0.0661163330078125,0.0059356689453125
1638746707986428700,12.4114287109375,-0.989532470703125,-0.0650634765625,0.0075225830078125
1638746707996450600,12.421450439453125,-0.996307373046875,-0.0660552978515625,0.01068115234375
1638746708006471700,12.4314716796875,-0.997589111328125,-0.0712127685546875,0.0101470947265625
1638746708016493800,12.441493896484374,-0.9916839599609375,-0.0760040283203125,0.0115509033203125
1638746708026514700,12.4515146484375,-0.9827423095703125,-0.0781402587890625,0.0094451904296875
1638746708036536600,12.46153662109375,-0.9766845703125,-0.0751190185546875,0.0097808837890625
1638746708046557700,12.4715576171875,-0.9751434326171875,-0.0672149658203125,0.0130462646484375
1638746708056579800,12.481579833984375,-0.97747802734375,-0.05780029296875,0.019683837890625
1638746708066600700,12.4916005859375,-0.9844818115234375,-0.0532989501953125,0.0306549072265625
1638746708076622800,12.501622802734374,-0.988067626953125,-0.0497283935546875,0.0424041748046875
1638746708086643700,12.511643798828125,-0.990447998046875,-0.049041748046875,0.0517730712890625
1638746708096665600,12.52166552734375,-0.9846649169921875,-0.0491180419921875,0.05999755859375
1638746708106686700,12.531686767578124,-0.9773101806640625,-0.046417236328125,0.060455322265625
1638746708116707800,12.541707763671875,-0.9794769287109375,-0.0406036376953125,0.05877685546875
1638746708126729700,12.551729736328125,-0.9906463623046875,-0.0426788330078125,0.058319091796875
1638746708136750600,12.56175048828125,-0.998321533203125,-0.05035400390625,0.054229736328125
1638746708146772700,12.571772705078125,-0.9959716796875,-0.0564727783203125,0.049346923828125
1638746708156793900,12.5817939453125,-0.989105224609375,-0.05242919921875,0.0535125732421875
1638746708166815700,12.591815673828124,-0.9927825927734375,-0.0466766357421875,0.054290771484375
1638746708176836600,12.601836669921875,-1.0075225830078125,-0.036224365234375,0.0381622314453125
1638746708186858800,12.611858642578126,-1.017486572265625,-0.0240631103515625,0.009246826171875
1638746708196879600,12.621879638671874,-1.0084381103515625,-0.0234375,-0.0340423583984375
1638746708206901800,12.63190185546875,-0.994232177734375,-0.040008544921875,-0.0598297119140625
1638746708216923000,12.6419228515625,-0.9839630126953125,-0.051788330078125,-0.0402069091796875
1638746708226944800,12.65194482421875,-0.97821044921875,-0.050384521484375,0.0017547607421875
1638746708236965600,12.661965576171875,-0.9729156494140625,-0.0545806884765625,0.0241241455078125
1638746708246987800,12.67198779296875,-0.96875,-0.064697265625,0.0387420654296875
1638746708257009000,12.6820087890625,-0.958892822265625,-0.05804443359375,0.04681396484375
1638746708267030800,12.69203076171875,-0.93023681640625,-0.0463409423828125,0.030242919921875
1638746708277051600,12.7020517578125,-0.908416748046875,-0.02349853515625,0.03057861328125
1638746708287073800,12.71207373046875,-0.9333953857421875,-0.027679443359375,0.0610198974609375
1638746708297095000,12.722094970703125,-0.968017578125,-0.0619354248046875,0.0685577392578125
1638746708307115800,12.73211572265625,-0.993316650390625,-0.1162567138671875,0.0344696044921875
1638746708317137700,12.7421376953125,-0.99871826171875,-0.1536712646484375,0.016754150390625
1638746708327158800,12.75215869140625,-1.0011749267578125,-0.1807098388671875,-0.0084686279296875
1638746708337181000,12.762180908203124,-1.0035400390625,-0.1732177734375,-0.027069091796875
1638746708347201800,12.772201904296875,-1.0341339111328125,-0.1581573486328125,-0.0699920654296875
1638746708357223700,12.7822236328125,-1.0834808349609375,-0.1495208740234375,-0.087646484375
1638746708367244800,12.792244873046876,-1.0993194580078125,-0.1316986083984375,-0.07684326171875
1638746708377266700,12.8022666015625,-1.0795745849609375,-0.114715576171875,-0.063201904296875
1638746708387287800,12.812287841796875,-1.0397796630859375,-0.0994720458984375,-0.0496978759765625
1638746708397309700,12.822309814453124,-0.9973602294921875,-0.0914306640625,-0.02880859375
1638746708407330800,12.832330810546875,-0.96539306640625,-0.07965087890625,-0.0036163330078125
1638746708417352700,12.842352783203125,-0.95098876953125,-0.0555877685546875,0.02191162109375
1638746708427373600,12.85237353515625,-0.9509429931640625,-0.030853271484375,0.0387725830078125
1638746708437395700,12.862395751953125,-0.957275390625,-0.03839111328125,0.0476531982421875
1638746708447416800,12.872416748046875,-0.9614715576171875,-0.059051513671875,0.061187744140625
1638746708457438700,12.882438720703124,-0.95855712890625,-0.0704193115234375,0.0709686279296875
1638746708467459600,12.89245947265625,-0.9591064453125,-0.0828704833984375,0.0728607177734375
