time,seconds_elapsed,z,y,x
1638754169678286800,0.011286865234375,-0.9804534912109375,-0.0872344970703125,-0.03851318359375
1638754169688307700,0.0213076171875,-0.9790191650390625,-0.08819580078125,-0.03765869140625
1638754169698327800,0.031327880859375,-0.982696533203125,-0.08746337890625,-0.03802490234375
1638754169708348700,0.0413486328125,-0.9876251220703125,-0.0867767333984375,-0.038299560546875
1638754169718368800,0.05136865234375,-0.9885406494140625,-0.0869293212890625,-0.039093017578125
1638754169728389600,0.0613896484375,-0.985748291015625,-0.0872802734375,-0.0394134521484375
1638754169738409700,0.07140966796875,-0.9842987060546875,-0.0870513916015625,-0.03924560546875
1638754169748430800,0.081430908203125,-0.9852752685546875,-0.0860137939453125,-0.0399932861328125
1638754169758450700,0.09145068359375,-0.9851531982421875,-0.0860748291015625,-0.03826904296875
1638754169768471800,0.101471923828125,-0.9848785400390625,-0.0862274169921875,-0.037872314453125
1638754169778492700,0.11149267578125,-0.9849853515625,-0.0859832763671875,-0.0376739501953125
1638754169788512800,0.1215126953125,-0.9862518310546875,-0.0856475830078125,-0.03704833984375
1638754169798533600,0.13153369140625,-0.9861602783203125,-0.0853118896484375,-0.03857421875
1638754169808553700,0.1415537109375,-0.9848785400390625,-0.0850677490234375,-0.0391387939453125
1638754169818574600,0.15157470703125,-0.9846343994140625,-0.085357666015625,-0.0389862060546875
1638754169828594700,0.1615947265625,-0.985198974609375,-0.0852203369140625,-0.0404510498046875
1638754169838615600,0.171615478515625,-0.9854278564453125,-0.085357666015625,-0.0415802001953125
1638754169848635600,0.1816357421875,-0.9862823486328125,-0.085601806640625,-0.0421600341796875
1638754169858656800,0.19165673828125,-0.9851226806640625,-0.086212158203125,-0.0419921875
1638754169868678000,0.201677978515625,-0.986328125,-0.08587646484375,-0.0418243408203125
1638754169878697700,0.21169775390625,-0.986572265625,-0.08673095703125,-0.040863037109375
1638754169888718800,0.22171875,-0.9867401123046875,-0.085540771484375,-0.0408172607421875
1638754169898739000,0.231739013671875,-0.9839935302734375,-0.085113525390625,-0.0400543212890625
1638754169908759800,0.241759765625,-0.984893798828125,-0.08624267578125,-0.04034423828125
1638754169918780000,0.25177978515625,-0.985076904296875,-0.0856475830078125,-0.03863525390625
1638754169928800800,0.26180078125,-0.9845733642578125,-0.086151123046875,-0.0385894775390625
1638754169938822000,0.27182177734375,-0.984771728515625,-0.08673095703125,-0.0386962890625
1638754169948841700,0.281841796875,-0.9862060546875,-0.086151123046875,-0.0391082763671875
1638754169958862800,0.29186279296875,-0.98431396484375,-0.0869293212890625,-0.039154052734375
1638754169968882700,0.301882568359375,-0.9849090576171875,-0.0873260498046875,-0.0399627685546875
1638754169978903800,0.31190380859375,-0.984375,-0.0866546630859375,-0.0411224365234375
1638754169988924000,0.321923828125,-0.9859161376953125,-0.086456298828125,-0.04052734375
1638754169998944800,0.33194482421875,-0.9855194091796875,-0.086181640625,-0.039794921875
1638754170008964900,0.34196484375,-0.9851837158203125,-0.0865325927734375,-0.039764404296875
1638754170018985700,0.35198583984375,-0.98480224609375,-0.086334228515625,-0.0386810302734375
1638754170029006600,0.362006591796875,-0.98492431640625,-0.08642578125,-0.0379486083984375
1638754170039026700,0.372026611328125,-0.9854736328125,-0.08612060546875,-0.037933349609375
1638754170049048000,0.382048095703125,-0.9865570068359375,-0.0867767333984375,-0.038909912109375
1638754170059068000,0.39206787109375,-0.988006591796875,-0.0867919921875,-0.038787841796875
1638754170069089000,0.402089111328125,-0.9879608154296875,-0.0875396728515625,-0.039093017578125
1638754170079108900,0.41210888671875,-0.987518310546875,-0.087677001953125,-0.0399627685546875
1638754170089130000,0.4221298828125,-0.9860687255859375,-0.0863037109375,-0.041748046875
1638754170099150800,0.43215087890625,-0.98565673828125,-0.0859527587890625,-0.0407562255859375
1638754170109171000,0.4421708984375,-0.9860382080078125,-0.085693359375,-0.0418243408203125
1638754170119191800,0.45219189453125,-0.985321044921875,-0.0850677490234375,-0.0435791015625
1638754170129212000,0.4622119140625,-0.98486328125,-0.0842742919921875,-0.0423583984375
1638754170139232800,0.472232666015625,-0.9853668212890625,-0.0843353271484375,-0.0406951904296875
1638754170149252900,0.4822529296875,-0.9859161376953125,-0.0840606689453125,-0.0409088134765625
1638754170159274000,0.49227392578125,-0.9865875244140625,-0.0843963623046875,-0.039520263671875
1638754170169294800,0.502294921875,-0.9863739013671875,-0.08367919921875,-0.039215087890625
1638754170179315000,0.51231494140625,-0.9871063232421875,-0.0841064453125,-0.038421630859375
1638754170189335800,0.522335693359375,-0.9875335693359375,-0.0854034423828125,-0.0389404296875
1638754170199356000,0.53235595703125,-0.986541748046875,-0.084075927734375,-0.04083251953125
1638754170209376800,0.542376708984375,-0.9857635498046875,-0.085052490234375,-0.041229248046875
1638754170219396900,0.55239697265625,-0.9859161376953125,-0.0855712890625,-0.0414581298828125
1638754170229417700,0.562417724609375,-0.986297607421875,-0.0854339599609375,-0.042327880859375
1638754170239437800,0.572437744140625,-0.9865875244140625,-0.0851898193359375,-0.0416107177734375
1638754170249459000,0.582458984375,-0.9845123291015625,-0.0844268798828125,-0.0412445068359375
1638754170259480000,0.59247998046875,-0.9846649169921875,-0.085235595703125,-0.0403594970703125
1638754170269500000,0.6025,-0.9859466552734375,-0.08660888671875,-0.039947509765625
1638754170279521000,0.61252099609375,-0.9867706298828125,-0.0865478515625,-0.0383453369140625
1638754170289541000,0.622541015625,-0.988189697265625,-0.0865631103515625,-0.037933349609375
1638754170299562000,0.63256201171875,-0.9873199462890625,-0.086395263671875,-0.0395355224609375
1638754170309582000,0.64258203125,-0.9854278564453125,-0.08746337890625,-0.0392913818359375
1638754170319603000,0.65260302734375,-0.983978271484375,-0.0879974365234375,-0.039276123046875
1638754170329624000,0.6626240234375,-0.984588623046875,-0.0888671875,-0.0390625
1638754170339644000,0.672643798828125,-0.9847412109375,-0.087982177734375,-0.0391845703125
1638754170349665000,0.6826650390625,-0.9843292236328125,-0.0887298583984375,-0.0401763916015625
1638754170359684900,0.692684814453125,-0.985260009765625,-0.0898590087890625,-0.0395660400390625
1638754170369706000,0.7027060546875,-0.9838409423828125,-0.0892486572265625,-0.0391693115234375
1638754170379725800,0.712725830078125,-0.9839630126953125,-0.089019775390625,-0.0399322509765625
1638754170389747000,0.722746826171875,-0.983917236328125,-0.0878753662109375,-0.0409393310546875
1638754170399767800,0.732767822265625,-0.98468017578125,-0.0863037109375,-0.0416717529296875
1638754170409788000,0.742787841796875,-0.9862060546875,-0.08575439453125,-0.04205322265625
1638754170419808800,0.752808837890625,-0.9869842529296875,-0.0858001708984375,-0.0421600341796875
1638754170429828900,0.762828857421875,-0.9861602783203125,-0.0832061767578125,-0.042327880859375
1638754170439849700,0.772849609375,-0.9861602783203125,-0.0832061767578125,-0.0413360595703125
1638754170449869800,0.782869873046875,-0.9854736328125,-0.0838775634765625,-0.038726806640625
1638754170459891000,0.792890869140625,-0.9862518310546875,-0.0850372314453125,-0.036529541015625
1638754170469911800,0.802911865234375,-0.9859771728515625,-0.0869598388671875,-0.0343780517578125
1638754170479932000,0.812931884765625,-0.9850311279296875,-0.0850677490234375,-0.034027099609375
1638754170489952800,0.822952880859375,-0.9841766357421875,-0.0853729248046875,-0.034912109375
1638754170499972900,0.832972900390625,-0.9822235107421875,-0.0858154296875,-0.0357666015625
1638754170509994000,0.842993896484375,-0.9830780029296875,-0.0849151611328125,-0.0394439697265625
1638754170520013800,0.853013916015625,-0.9846038818359375,-0.0834808349609375,-0.0421905517578125
1638754170530035000,0.863034912109375,-0.9866943359375,-0.0822296142578125,-0.042327880859375
1638754170540056000,0.87305615234375,-0.9883575439453125,-0.0823974609375,-0.040924072265625
1638754170550076000,0.883075927734375,-0.9884490966796875,-0.0844573974609375,-0.036834716796875
1638754170560097000,0.893096923828125,-0.9878387451171875,-0.086822509765625,-0.033294677734375
1638754170570117000,0.9031171875,-0.9845428466796875,-0.088226318359375,-0.0338897705078125
1638754170580138000,0.913137939453125,-0.984588623046875,-0.087921142578125,-0.0348052978515625
1638754170590158000,0.923157958984375,-0.9847412109375,-0.0880126953125,-0.0375823974609375
1638754170600179000,0.933178955078125,-0.9839935302734375,-0.0870208740234375,-0.0414276123046875
1638754170610199000,0.943198974609375,-0.982666015625,-0.0851898193359375,-0.0453338623046875
1638754170620220000,0.953219970703125,-0.98388671875,-0.0839080810546875,-0.0475616455078125
1638754170630241000,0.963240966796875,-0.985504150390625,-0.0847930908203125,-0.0491943359375
1638754170640260900,0.9732607421875,-0.9882659912109375,-0.0851898193359375,-0.0482177734375
1638754170650282000,0.983281982421875,-0.990264892578125,-0.084930419921875,-0.0476837158203125
1638754170660301800,0.9933017578125,-0.9884033203125,-0.084564208984375,-0.0449676513671875
1638754170670323000,1.003322998046875,-0.9866180419921875,-0.0848541259765625,-0.041656494140625
1638754170680343000,1.013343017578125,-0.9843597412109375,-0.08721923828125,-0.036956787109375
1638754170690364000,1.023364013671875,-0.9830322265625,-0.088287353515625,-0.032196044921875
1638754170700384800,1.033384765625,-0.983734130859375,-0.0859832763671875,-0.03277587890625
1638754170710404900,1.04340478515625,-0.9856414794921875,-0.08551025390625,-0.03778076171875
1638754170720425700,1.05342578125,-0.9868011474609375,-0.08349609375,-0.0440826416015625
1638754170730445800,1.06344580078125,-0.9887847900390625,-0.080596923828125,-0.0473785400390625
1638754170740467000,1.073467041015625,-0.9910888671875,-0.080902099609375,-0.05023193359375
1638754170750486800,1.08348681640625,-0.9937896728515625,-0.081817626953125,-0.0498809814453125
1638754170760508000,1.0935078125,-0.9931640625,-0.0818939208984375,-0.047760009765625
1638754170770528800,1.10352880859375,-0.9885101318359375,-0.08245849609375,-0.044097900390625
1638754170780548900,1.113548828125,-0.98541259765625,-0.0841064453125,-0.0385284423828125
1638754170790570000,1.123570068359375,-0.985687255859375,-0.0861663818359375,-0.0336151123046875
1638754170800589800,1.13358984375,-0.9850311279296875,-0.087066650390625,-0.032379150390625
1638754170810611000,1.14361083984375,-0.980560302734375,-0.0851593017578125,-0.0338897705078125
1638754170820631000,1.153631103515625,-0.9811859130859375,-0.0825653076171875,-0.0361328125
1638754170830652000,1.16365185546875,-0.9867401123046875,-0.0817108154296875,-0.036712646484375
1638754170840673000,1.173673095703125,-0.9903411865234375,-0.0811004638671875,-0.042724609375
1638754170850692900,1.18369287109375,-0.9876708984375,-0.0817108154296875,-0.04681396484375
1638754170860714000,1.1937138671875,-0.9850616455078125,-0.0816497802734375,-0.0487823486328125
1638754170870734000,1.203734130859375,-0.9880218505859375,-0.0828704833984375,-0.046630859375
1638754170880755000,1.2137548828125,-0.9893951416015625,-0.0824127197265625,-0.0452423095703125
1638754170890775000,1.223775146484375,-0.9873504638671875,-0.0845489501953125,-0.0446929931640625
1638754170900796000,1.2337958984375,-0.9828643798828125,-0.083221435546875,-0.0444793701171875
1638754170910817000,1.243817138671875,-0.9838104248046875,-0.0848541259765625,-0.0385589599609375
1638754170920836900,1.2538369140625,-0.9850616455078125,-0.0870208740234375,-0.03594970703125
1638754170930858000,1.26385791015625,-0.9857025146484375,-0.0820465087890625,-0.034149169921875
1638754170940877800,1.2738779296875,-0.9868621826171875,-0.0796051025390625,-0.0361785888671875
1638754170950899000,1.28389892578125,-0.985870361328125,-0.082733154296875,-0.037872314453125
1638754170960918800,1.293918701171875,-0.983154296875,-0.0795745849609375,-0.0395355224609375
1638754170970940000,1.30393994140625,-0.9875640869140625,-0.0752410888671875,-0.038360595703125
1638754170980960800,1.313960693359375,-0.9926605224609375,-0.0776824951171875,-0.0415802001953125
1638754170990980900,1.32398095703125,-0.988739013671875,-0.07672119140625,-0.0444793701171875
1638754171001001700,1.334001708984375,-0.985198974609375,-0.074798583984375,-0.040771484375
1638754171011021800,1.344021728515625,-0.9848480224609375,-0.0789947509765625,-0.0364227294921875
1638754171021043000,1.35404296875,-0.9837188720703125,-0.0824737548828125,-0.031524658203125
1638754171031062800,1.364062744140625,-0.9845123291015625,-0.0834197998046875,-0.02679443359375
1638754171041084000,1.374083984375,-0.988067626953125,-0.087554931640625,-0.0249176025390625
1638754171051104300,1.384104248046875,-0.98870849609375,-0.0904693603515625,-0.0282745361328125
1638754171061125400,1.39412548828125,-0.988250732421875,-0.091400146484375,-0.0269012451171875
1638754171071146200,1.404146240234375,-0.9875640869140625,-0.09503173828125,-0.0272369384765625
1638754171081166300,1.414166259765625,-0.98681640625,-0.101806640625,-0.0304107666015625
1638754171091187200,1.424187255859375,-0.98651123046875,-0.1063385009765625,-0.0389251708984375
1638754171101207300,1.434207275390625,-0.98419189453125,-0.105255126953125,-0.0479583740234375
1638754171111228200,1.444228271484375,-0.9816741943359375,-0.0978240966796875,-0.0499114990234375
1638754171121248300,1.454248291015625,-0.979736328125,-0.08819580078125,-0.04327392578125
1638754171131269000,1.46426904296875,-0.98095703125,-0.0847625732421875,-0.0311126708984375
1638754171141290200,1.474290283203125,-0.982818603515625,-0.0876007080078125,-0.021087646484375
1638754171151310000,1.48431005859375,-0.983978271484375,-0.0902099609375,-0.018157958984375
1638754171161331200,1.494331298828125,-0.98468017578125,-0.0894012451171875,-0.0212554931640625
1638754171171351300,1.504351318359375,-0.9838104248046875,-0.0912628173828125,-0.0278167724609375
1638754171181372200,1.5143720703125,-0.982269287109375,-0.0908203125,-0.0366973876953125
1638754171191392300,1.524392333984375,-0.9826507568359375,-0.0875701904296875,-0.0465545654296875
1638754171201413000,1.5344130859375,-0.9870147705078125,-0.0799713134765625,-0.055084228515625
1638754171211434200,1.544434326171875,-0.993927001953125,-0.07183837890625,-0.0622406005859375
1638754171221454000,1.5544541015625,-0.997406005859375,-0.0658721923828125,-0.0660247802734375
1638754171231475500,1.564475341796875,-0.9974822998046875,-0.0627593994140625,-0.06390380859375
1638754171241495000,1.5744951171875,-0.994171142578125,-0.06597900390625,-0.05145263671875
1638754171251516400,1.584516357421875,-0.986846923828125,-0.073883056640625,-0.0306396484375
1638754171261536300,1.594536376953125,-0.978668212890625,-0.0791015625,-0.0137939453125
1638754171271557400,1.604557373046875,-0.97369384765625,-0.0826263427734375,-0.005279541015625
1638754171281578200,1.614578125,-0.9778900146484375,-0.0841522216796875,-0.005950927734375
1638754171291598300,1.624598388671875,-0.987518310546875,-0.0841827392578125,-0.01202392578125
1638754171301619200,1.634619140625,-0.9915771484375,-0.078369140625,-0.021392822265625
1638754171311639300,1.644639404296875,-0.9912567138671875,-0.07196044921875,-0.0317230224609375
1638754171321660200,1.65466015625,-0.9861602783203125,-0.06817626953125,-0.0395050048828125
1638754171331680300,1.66468017578125,-0.980987548828125,-0.06927490234375,-0.046844482421875
1638754171341701400,1.674701416015625,-0.9802398681640625,-0.07061767578125,-0.05078125
1638754171351722200,1.68472216796875,-0.984344482421875,-0.0729522705078125,-0.0508270263671875
1638754171361742300,1.694742431640625,-0.9892425537109375,-0.0769195556640625,-0.0486602783203125
1638754171371763200,1.70476318359375,-0.9921417236328125,-0.0813140869140625,-0.044830322265625
1638754171381783300,1.714783203125,-0.9925994873046875,-0.0859832763671875,-0.043212890625
1638754171391804200,1.72480419921875,-0.9896697998046875,-0.087371826171875,-0.041046142578125
1638754171401824300,1.73482421875,-0.9856719970703125,-0.08892822265625,-0.03948974609375
1638754171411845000,1.74484521484375,-0.984527587890625,-0.089263916015625,-0.040008544921875
1638754171421865200,1.754865234375,-0.9861907958984375,-0.0881805419921875,-0.0396881103515625
1638754171431886000,1.764885986328125,-0.985443115234375,-0.086029052734375,-0.0407867431640625
1638754171441907200,1.7749072265625,-0.98504638671875,-0.084564208984375,-0.0413665771484375
1638754171451927300,1.78492724609375,-0.9846954345703125,-0.0844879150390625,-0.04034423828125
1638754171461948200,1.7949482421875,-0.98455810546875,-0.0839385986328125,-0.0378265380859375
1638754171471968300,1.80496826171875,-0.984344482421875,-0.0843963623046875,-0.0332489013671875
1638754171481989000,1.814989013671875,-0.9830322265625,-0.0847625732421875,-0.0296783447265625
1638754171492009200,1.82500927734375,-0.984344482421875,-0.0863494873046875,-0.0263824462890625
1638754171502030000,1.835030029296875,-0.9856414794921875,-0.08612060546875,-0.02325439453125
1638754171512051500,1.845051513671875,-0.9856414794921875,-0.0854339599609375,-0.022369384765625
1638754171522071300,1.8550712890625,-0.9868011474609375,-0.0852813720703125,-0.0226287841796875
1638754171532092400,1.865092529296875,-0.986663818359375,-0.0836181640625,-0.023193359375
1638754171542112300,1.8751123046875,-0.9863433837890625,-0.081695556640625,-0.0258331298828125
1638754171552133400,1.88513330078125,-0.9862518310546875,-0.0803985595703125,-0.0293731689453125
1638754171562153200,1.8951533203125,-0.9892425537109375,-0.0794525146484375,-0.03155517578125
1638754171572174300,1.90517431640625,-0.988983154296875,-0.0785675048828125,-0.0333404541015625
1638754171582195200,1.9151953125,-0.9878082275390625,-0.0787811279296875,-0.036224365234375
1638754171592215300,1.92521533203125,-0.9883270263671875,-0.07965087890625,-0.037445068359375
1638754171602236200,1.935236083984375,-0.9885711669921875,-0.079345703125,-0.0379638671875
1638754171612256300,1.94525634765625,-0.98834228515625,-0.0803070068359375,-0.0376739501953125
1638754171622277400,1.95527734375,-0.988922119140625,-0.0810699462890625,-0.03741455078125
1638754171632297200,1.965297119140625,-0.9884796142578125,-0.07958984375,-0.037322998046875
1638754171642318300,1.975318359375,-0.988037109375,-0.0790252685546875,-0.0376739501953125
1638754171652338200,1.985338134765625,-0.9878082275390625,-0.0783843994140625,-0.038330078125
1638754171662359300,1.995359375,-0.9882354736328125,-0.0792083740234375,-0.038604736328125
1638754171672380200,2.005380126953125,-0.9869842529296875,-0.078857421875,-0.0383453369140625
1638754171682400300,2.015400146484375,-0.9873504638671875,-0.0798492431640625,-0.0381317138671875
1638754171692421000,2.025421142578125,-0.986968994140625,-0.081573486328125,-0.038909912109375
1638754171702441200,2.035441162109375,-0.9859771728515625,-0.0820159912109375,-0.0383148193359375
1638754171712462000,2.045462158203125,-0.984619140625,-0.08306884765625,-0.037139892578125
1638754171722482200,2.055482177734375,-0.984527587890625,-0.0829315185546875,-0.03662109375
1638754171732503300,2.06550341796875,-0.9837799072265625,-0.08270263671875,-0.03570556640625
1638754171742524200,2.075524169921875,-0.9842376708984375,-0.082366943359375,-0.0344390869140625
1638754171752544300,2.085544189453125,-0.9846954345703125,-0.080963134765625,-0.0350341796875
1638754171762565000,2.095565185546875,-0.984161376953125,-0.0807037353515625,-0.034149169921875
1638754171772585200,2.105585205078125,-0.984954833984375,-0.0806732177734375,-0.0333709716796875
1638754171782606300,2.1156064453125,-0.985443115234375,-0.0808868408203125,-0.03521728515625
1638754171792626200,2.125626220703125,-0.98583984375,-0.081451416015625,-0.0350341796875
1638754171802647300,2.135647216796875,-0.9864349365234375,-0.081695556640625,-0.03515625
1638754171812668400,2.14566845703125,-0.9848785400390625,-0.082855224609375,-0.03533935546875
1638754171822688300,2.155688232421875,-0.985565185546875,-0.0834197998046875,-0.03631591796875
1638754171832709400,2.16570947265625,-0.9860382080078125,-0.0835723876953125,-0.035552978515625
1638754171842729200,2.175729248046875,-0.98675537109375,-0.0842437744140625,-0.0350189208984375
1638754171852750300,2.185750244140625,-0.986328125,-0.0839691162109375,-0.0335693359375
1638754171862770400,2.1957705078125,-0.98724365234375,-0.0832977294921875,-0.0326690673828125
1638754171872791300,2.205791259765625,-0.9864959716796875,-0.083251953125,-0.03106689453125
1638754171882812200,2.215812255859375,-0.9870758056640625,-0.082122802734375,-0.03076171875
1638754171892832300,2.225832275390625,-0.9859619140625,-0.0824432373046875,-0.0297088623046875
1638754171902853400,2.235853271484375,-0.9872894287109375,-0.082122802734375,-0.0316925048828125
1638754171912873200,2.245873291015625,-0.9876556396484375,-0.08172607421875,-0.032440185546875
1638754171922894300,2.255894287109375,-0.9878082275390625,-0.08038330078125,-0.033843994140625
1638754171932914200,2.2659140625,-0.9876708984375,-0.080078125,-0.033721923828125
1638754171942935300,2.275935302734375,-0.9876861572265625,-0.0792694091796875,-0.0353851318359375
1638754171952956200,2.2859560546875,-0.987274169921875,-0.0780792236328125,-0.0357208251953125
1638754171962976300,2.295976318359375,-0.986785888671875,-0.0783843994140625,-0.03460693359375
1638754171972997000,2.3059970703125,-0.986297607421875,-0.0775299072265625,-0.0347137451171875
1638754171983017200,2.316017333984375,-0.987030029296875,-0.078704833984375,-0.0341796875
1638754171993038000,2.3260380859375,-0.9872283935546875,-0.079132080078125,-0.0345916748046875
1638754172003058200,2.33605810546875,-0.9884033203125,-0.0795440673828125,-0.0328521728515625
1638754172013079000,2.3460791015625,-0.988433837890625,-0.080291748046875,-0.03271484375
1638754172023100200,2.35610009765625,-0.987579345703125,-0.0807952880859375,-0.0327301025390625
1638754172033120300,2.366120361328125,-0.9867095947265625,-0.08251953125,-0.0342559814453125
1638754172043141000,2.37614111328125,-0.98590087890625,-0.0824127197265625,-0.0353851318359375
1638754172053161200,2.3861611328125,-0.9846343994140625,-0.0810394287109375,-0.037261962890625
1638754172063182300,2.396182373046875,-0.9856414794921875,-0.0810394287109375,-0.0365447998046875
1638754172073202200,2.4062021484375,-0.983734130859375,-0.080535888671875,-0.0355682373046875
1638754172083223300,2.416223388671875,-0.9824371337890625,-0.0808258056640625,-0.0357818603515625
1638754172093243400,2.426243408203125,-0.98388671875,-0.0788421630859375,-0.0346832275390625
1638754172103264300,2.43626416015625,-0.985992431640625,-0.0812835693359375,-0.0350799560546875
1638754172113285400,2.446285400390625,-0.9875335693359375,-0.0816650390625,-0.0364990234375
1638754172123305200,2.45630517578125,-0.98779296875,-0.08123779296875,-0.0370330810546875
1638754172133326300,2.466326416015625,-0.98699951171875,-0.0817718505859375,-0.0367889404296875
1638754172143346400,2.476346435546875,-0.9846954345703125,-0.081024169921875,-0.0363006591796875
1638754172153367300,2.4863671875,-0.9835052490234375,-0.07989501953125,-0.0351409912109375
1638754172163387400,2.496387451171875,-0.9822235107421875,-0.0797119140625,-0.031890869140625
1638754172173408300,2.506408203125,-0.9839019775390625,-0.0796356201171875,-0.029022216796875
1638754172183429000,2.51642919921875,-0.9852752685546875,-0.07830810546875,-0.0290985107421875
1638754172193449200,2.52644921875,-0.98748779296875,-0.0787200927734375,-0.0296173095703125
1638754172203470300,2.53647021484375,-0.9877166748046875,-0.080596923828125,-0.0340576171875
1638754172213490200,2.546490234375,-0.9876556396484375,-0.0846099853515625,-0.0392913818359375
1638754172223511300,2.55651123046875,-0.986083984375,-0.0898895263671875,-0.046661376953125
1638754172233531100,2.56653125,-0.9842376708984375,-0.0902099609375,-0.0523529052734375
1638754172243552300,2.57655224609375,-0.984283447265625,-0.0867767333984375,-0.0533447265625
1638754172253573000,2.586572998046875,-0.98443603515625,-0.0835723876953125,-0.0509185791015625
1638754172263593200,2.59659326171875,-0.9834136962890625,-0.0814971923828125,-0.047332763671875
1638754172273614000,2.606614013671875,-0.9810333251953125,-0.0797119140625,-0.0416107177734375
1638754172283634200,2.61663427734375,-0.982421875,-0.0802764892578125,-0.038330078125
1638754172293655000,2.626655029296875,-0.9871673583984375,-0.0847625732421875,-0.03790283203125
1638754172303675100,2.636675048828125,-0.989959716796875,-0.0873260498046875,-0.040802001953125
1638754172313696300,2.6466962890625,-0.992401123046875,-0.09002685546875,-0.0427093505859375
1638754172323717400,2.65671728515625,-0.9930419921875,-0.0916748046875,-0.0447845458984375
1638754172333737200,2.6667373046875,-0.9905242919921875,-0.0937347412109375,-0.0445709228515625
1638754172343758300,2.67675830078125,-0.988311767578125,-0.0951690673828125,-0.0415191650390625
1638754172353778400,2.6867783203125,-0.9850006103515625,-0.0942535400390625,-0.03814697265625
1638754172363799300,2.69679931640625,-0.9822540283203125,-0.0937652587890625,-0.0341033935546875
1638754172373819400,2.7068193359375,-0.9805450439453125,-0.0926666259765625,-0.030426025390625
1638754172383840300,2.71684033203125,-0.978973388671875,-0.09051513671875,-0.0254974365234375
1638754172393860400,2.7268603515625,-0.97991943359375,-0.08795166015625,-0.0251312255859375
1638754172403881200,2.736881103515625,-0.9813079833984375,-0.0874786376953125,-0.0296630859375
1638754172413902300,2.74690234375,-0.9841461181640625,-0.0875396728515625,-0.0336761474609375
1638754172423922200,2.756922119140625,-0.9855194091796875,-0.088104248046875,-0.040985107421875
1638754172433943300,2.766943359375,-0.9838104248046875,-0.0885009765625,-0.04937744140625
1638754172443963400,2.77696337890625,-0.98419189453125,-0.08868408203125,-0.05322265625
1638754172453984300,2.786984375,-0.985443115234375,-0.089874267578125,-0.0538177490234375
1638754172464004400,2.79700439453125,-0.986419677734375,-0.0907745361328125,-0.05029296875
1638754172474025200,2.807025146484375,-0.98748779296875,-0.0922088623046875,-0.04644775390625
1638754172484046300,2.81704638671875,-0.98687744140625,-0.0916900634765625,-0.0438995361328125
1638754172494066200,2.827066162109375,-0.985504150390625,-0.0926666259765625,-0.0438079833984375
1638754172504087300,2.83708740234375,-0.9866485595703125,-0.0939788818359375,-0.047027587890625
1638754172514107100,2.847107177734375,-0.990814208984375,-0.0931243896484375,-0.049346923828125
1638754172524128300,2.857128173828125,-0.9947509765625,-0.0905609130859375,-0.0469207763671875
1638754172534148000,2.867148193359375,-0.9973297119140625,-0.0934295654296875,-0.03851318359375
1638754172544169200,2.877169189453125,-0.9973602294921875,-0.0987701416015625,-0.019256591796875
1638754172554190000,2.887190185546875,-0.9895172119140625,-0.1037445068359375,-0.0057525634765625
1638754172564210200,2.897210205078125,-0.9735565185546875,-0.10589599609375,0.0005645751953125
1638754172574231000,2.90723095703125,-0.955322265625,-0.105804443359375,-0.0008544921875
1638754172584251100,2.917251220703125,-0.952850341796875,-0.0988311767578125,-0.0169830322265625
1638754172594272300,2.927272216796875,-0.974273681640625,-0.0834808349609375,-0.0321502685546875
1638754172604292000,2.9372919921875,-1.008758544921875,-0.0724029541015625,-0.048126220703125
1638754172614313200,2.947313232421875,-1.034393310546875,-0.06549072265625,-0.0817718505859375
1638754172624334300,2.957334228515625,-1.0249176025390625,-0.0625152587890625,-0.114349365234375
1638754172634354400,2.9673544921875,-0.98150634765625,-0.0647735595703125,-0.1217498779296875
1638754172644375300,2.977375244140625,-0.9384765625,-0.0669708251953125,-0.10791015625
1638754172654395400,2.9873955078125,-0.93060302734375,-0.06121826171875,-0.0743255615234375
1638754172664416300,2.997416259765625,-0.9603118896484375,-0.0697174072265625,-0.031494140625
1638754172674436400,3.007436279296875,-1.001708984375,-0.0923309326171875,-0.0013427734375
1638754172684457200,3.017457275390625,-1.0247344970703125,-0.1100616455078125,0.011688232421875
1638754172694477300,3.027477294921875,-1.0276336669921875,-0.11163330078125,0.015716552734375
1638754172704498200,3.037498291015625,-1.016021728515625,-0.1026458740234375,0.0069122314453125
1638754172714519300,3.047519287109375,-0.9952850341796875,-0.098876953125,-0.009552001953125
1638754172724539400,3.057539306640625,-0.97222900390625,-0.09881591796875,-0.0248870849609375
1638754172734560300,3.067560302734375,-0.95343017578125,-0.0931243896484375,-0.0452728271484375
1638754172744580400,3.077580322265625,-0.95233154296875,-0.0906524658203125,-0.071502685546875
1638754172754601200,3.087601318359375,-0.9700927734375,-0.095184326171875,-0.095062255859375
1638754172764621300,3.097621337890625,-0.99609375,-0.0986480712890625,-0.0998382568359375
1638754172774642200,3.10764208984375,-1.0212860107421875,-0.1012725830078125,-0.097686767578125
1638754172784663300,3.117663330078125,-1.02734375,-0.104034423828125,-0.098968505859375
1638754172794683100,3.12768310546875,-1.013397216796875,-0.110687255859375,-0.0915679931640625
1638754172804704300,3.137704345703125,-0.9888153076171875,-0.1086883544921875,-0.084197998046875
1638754172814724000,3.14772412109375,-0.9764404296875,-0.101959228515625,-0.0781707763671875
1638754172824745200,3.1577451171875,-0.97479248046875,-0.1011199951171875,-0.0600433349609375
1638754172834765300,3.167765380859375,-0.9748077392578125,-0.100860595703125,-0.0407562255859375
1638754172844786200,3.1777861328125,-0.9787445068359375,-0.087982177734375,-0.025604248046875
1638754172854807000,3.18780712890625,-0.986480712890625,-0.078460693359375,-0.020050048828125
1638754172864827100,3.1978271484375,-0.9917449951171875,-0.07293701171875,-0.020965576171875
1638754172874848000,3.207847900390625,-0.9898834228515625,-0.06658935546875,-0.02581787109375
1638754172884868000,3.2178681640625,-0.9882965087890625,-0.0606536865234375,-0.030181884765625
1638754172894889500,3.227889404296875,-0.9868927001953125,-0.0619659423828125,-0.033935546875
1638754172904909000,3.237908935546875,-0.984954833984375,-0.071929931640625,-0.0343780517578125
1638754172914930400,3.247930419921875,-0.9808807373046875,-0.08477783203125,-0.0311126708984375
1638754172924950300,3.2579501953125,-0.9760894775390625,-0.0951690673828125,-0.0318756103515625
1638754172934971400,3.267971435546875,-0.9762420654296875,-0.09710693359375,-0.03570556640625
1638754172944992300,3.2779921875,-0.9801483154296875,-0.093658447265625,-0.03460693359375
1638754172955012400,3.288012451171875,-0.984832763671875,-0.0916290283203125,-0.0272369384765625
1638754172965033200,3.298033203125,-0.986297607421875,-0.0894622802734375,-0.0182952880859375
1638754172975053300,3.30805322265625,-0.9859771728515625,-0.0865936279296875,-0.013763427734375
1638754172985074200,3.31807421875,-0.9844818115234375,-0.0819549560546875,-0.0111236572265625
1638754172995094300,3.32809423828125,-0.9807586669921875,-0.075469970703125,-0.010986328125
1638754173005115400,3.338115478515625,-0.977386474609375,-0.0710906982421875,-0.006072998046875
1638754173015136300,3.34813623046875,-0.974517822265625,-0.070098876953125,-0.0051727294921875
1638754173025156400,3.35815625,-0.97637939453125,-0.0671844482421875,-0.0063629150390625
1638754173035177200,3.36817724609375,-0.987060546875,-0.0688629150390625,-0.007720947265625
1638754173045197300,3.378197265625,-0.9998626708984375,-0.0868377685546875,-0.0190277099609375
1638754173055218200,3.38821826171875,-0.9970550537109375,-0.104034423828125,-0.0411224365234375
1638754173065238300,3.39823828125,-0.98284912109375,-0.1177825927734375,-0.0677642822265625
1638754173075259100,3.408259033203125,-0.969451904296875,-0.127288818359375,-0.0928192138671875
1638754173085280300,3.4182802734375,-0.970977783203125,-0.1260833740234375,-0.09765625
1638754173095300000,3.428300048828125,-0.9847564697265625,-0.11578369140625,-0.08587646484375
1638754173105321200,3.4383212890625,-0.99163818359375,-0.1049957275390625,-0.05792236328125
1638754173115341300,3.44834130859375,-0.9837493896484375,-0.085662841796875,-0.022979736328125
1638754173125362200,3.458362060546875,-0.9826812744140625,-0.0738067626953125,-0.00347900390625
1638754173135382300,3.46838232421875,-0.9861602783203125,-0.068328857421875,-0.0032196044921875
1638754173145403100,3.478403076171875,-0.9884796142578125,-0.0741424560546875,-0.0284423828125
1638754173155424000,3.488424072265625,-0.987762451171875,-0.0775604248046875,-0.0599212646484375
1638754173165444000,3.498444091796875,-0.9984588623046875,-0.0662994384765625,-0.0793304443359375
1638754173175465200,3.50846533203125,-1.00732421875,-0.041900634765625,-0.082672119140625
1638754173185485000,3.518485107421875,-1.00628662109375,-0.0124969482421875,-0.0745697021484375
1638754173195506200,3.528506103515625,-1.0064239501953125,-0.0146331787109375,-0.060394287109375
1638754173205526000,3.538526123046875,-1.0055389404296875,-0.0557403564453125,-0.0369720458984375
1638754173215547100,3.548547119140625,-0.98406982421875,-0.09619140625,-0.02081298828125
1638754173225568000,3.558568115234375,-0.97052001953125,-0.138671875,-0.0288848876953125
1638754173235588000,3.568588134765625,-0.961456298828125,-0.1501922607421875,-0.0351409912109375
1638754173245609000,3.57860888671875,-0.96185302734375,-0.1221160888671875,-0.0326995849609375
1638754173255629000,3.588629150390625,-0.973785400390625,-0.078125,-0.019683837890625
1638754173265650000,3.59864990234375,-0.9917144775390625,-0.0548095703125,0.014495849609375
1638754173275670000,3.608669921875,-0.9969482421875,-0.0481414794921875,0.046234130859375
1638754173285691100,3.618691162109375,-0.9898681640625,-0.039794921875,0.059844970703125
1638754173295711000,3.6287109375,-0.98468017578125,-0.0345916748046875,0.066986083984375
1638754173305732000,3.638732177734375,-0.9864959716796875,-0.0306549072265625,0.0555877685546875
1638754173315753200,3.648753173828125,-0.9952392578125,-0.041290283203125,0.033782958984375
1638754173325773000,3.65877294921875,-0.997955322265625,-0.058502197265625,0.0108184814453125
1638754173335794200,3.668794189453125,-0.993865966796875,-0.0716552734375,-0.0008087158203125
1638754173345814300,3.678814208984375,-0.987396240234375,-0.0848236083984375,-0.0054779052734375
1638754173355835100,3.688835205078125,-0.977447509765625,-0.0947113037109375,-0.0211334228515625
1638754173365855200,3.698855224609375,-0.9633331298828125,-0.1014404296875,-0.0479888916015625
1638754173375876000,3.7088759765625,-0.963714599609375,-0.094940185546875,-0.0416107177734375
1638754173385897200,3.718897216796875,-0.9718017578125,-0.09637451171875,-0.06036376953125
1638754173395917000,3.7289169921875,-0.9695587158203125,-0.09393310546875,-0.100311279296875
1638754173405938200,3.738938232421875,-0.9793243408203125,-0.079559326171875,-0.079071044921875
1638754173415958300,3.748958251953125,-0.9941558837890625,-0.0797882080078125,-0.0528106689453125
1638754173425979100,3.758979248046875,-0.99737548828125,-0.0747528076171875,-0.032135009765625
1638754173435999200,3.768999267578125,-0.9905853271484375,-0.0640869140625,-0.015869140625
1638754173446020000,3.77902001953125,-0.98382568359375,-0.058349609375,-0.0073699951171875
1638754173456041200,3.789041259765625,-0.9825592041015625,-0.0586090087890625,0.00213623046875
1638754173466061000,3.79906103515625,-0.9884033203125,-0.06341552734375,0.013519287109375
1638754173476082200,3.809082275390625,-0.9948577880859375,-0.067718505859375,0.0268096923828125
1638754173486102000,3.81910205078125,-0.9979095458984375,-0.071807861328125,0.0335235595703125
1638754173496123100,3.829123046875,-0.992462158203125,-0.0793304443359375,0.0278167724609375
1638754173506143000,3.83914306640625,-0.98187255859375,-0.0844268798828125,0.0109100341796875
1638754173516164000,3.8491640625,-0.9713897705078125,-0.088226318359375,-0.0177459716796875
1638754173526184200,3.85918408203125,-0.964141845703125,-0.09039306640625,-0.0448455810546875
1638754173536205000,3.869205078125,-0.9676666259765625,-0.089111328125,-0.058990478515625
1638754173546226000,3.879225830078125,-0.9791107177734375,-0.0870819091796875,-0.062164306640625
1638754173556246000,3.88924609375,-0.9926300048828125,-0.0841217041015625,-0.0570068359375
1638754173566267100,3.89926708984375,-1.0004119873046875,-0.0814056396484375,-0.0468292236328125
1638754173576287000,3.909286865234375,-1.00360107421875,-0.0801544189453125,-0.0354156494140625
1638754173586308000,3.91930810546875,-1.0012054443359375,-0.0793609619140625,-0.0260772705078125
1638754173596328000,3.929327880859375,-0.996734619140625,-0.07806396484375,-0.018280029296875
1638754173606349300,3.939349365234375,-0.9924163818359375,-0.0761871337890625,-0.021759033203125
1638754173616370200,3.9493701171875,-0.9921722412109375,-0.07476806640625,-0.0297698974609375
1638754173626390300,3.959390380859375,-0.99664306640625,-0.0741424560546875,-0.04229736328125
1638754173636411100,3.9694111328125,-1.000885009765625,-0.07281494140625,-0.052947998046875
1638754173646431200,3.97943115234375,-1.0005035400390625,-0.0730743408203125,-0.05712890625
1638754173656452000,3.9894521484375,-0.995880126953125,-0.074005126953125,-0.056427001953125
1638754173666472200,3.99947216796875,-0.989898681640625,-0.0785369873046875,-0.052825927734375
1638754173676493000,4.0094931640625,-0.985565185546875,-0.083038330078125,-0.0478668212890625
1638754173686514200,4.01951416015625,-0.985107421875,-0.0853424072265625,-0.042449951171875
1638754173696534300,4.0295341796875,-0.9846954345703125,-0.084503173828125,-0.0348052978515625
1638754173706555100,4.03955517578125,-0.98455810546875,-0.0803985595703125,-0.027557373046875
1638754173716575200,4.0495751953125,-0.98626708984375,-0.0770721435546875,-0.02166748046875
1638754173726596000,4.05959619140625,-0.9846343994140625,-0.07452392578125,-0.0159912109375
1638754173736616200,4.0696162109375,-0.981475830078125,-0.0732421875,-0.01666259765625
1638754173746637000,4.079636962890625,-0.982208251953125,-0.0728607177734375,-0.019805908203125
1638754173756658200,4.089658203125,-0.98199462890625,-0.0756378173828125,-0.025115966796875
1638754173766678000,4.099677978515625,-0.980499267578125,-0.0772857666015625,-0.030517578125
1638754173776699100,4.10969921875,-0.981964111328125,-0.0784912109375,-0.0348663330078125
1638754173786719000,4.119718994140625,-0.9852752685546875,-0.079376220703125,-0.037384033203125
1638754173796740000,4.129739990234375,-0.986541748046875,-0.0778045654296875,-0.0366973876953125
1638754173806760200,4.13976025390625,-0.986114501953125,-0.0755767822265625,-0.0363922119140625
1638754173816781000,4.149781005859375,-0.9863433837890625,-0.071685791015625,-0.0356903076171875
1638754173826801200,4.15980126953125,-0.9864044189453125,-0.0697174072265625,-0.036529541015625
1638754173836822000,4.169822021484375,-0.9876251220703125,-0.0693359375,-0.03558349609375
1638754173846843000,4.1798427734375,-0.9902496337890625,-0.0702972412109375,-0.035491943359375
1638754173856863000,4.189863037109375,-0.9903717041015625,-0.0710906982421875,-0.0352935791015625
1638754173866884400,4.19988427734375,-0.989471435546875,-0.0726470947265625,-0.0355987548828125
1638754173876904000,4.209904052734375,-0.988677978515625,-0.0745391845703125,-0.035064697265625
1638754173886925300,4.21992529296875,-0.9882659912109375,-0.07794189453125,-0.0363616943359375
1638754173896945200,4.229945068359375,-0.9882659912109375,-0.081207275390625,-0.0357513427734375
1638754173906966300,4.23996630859375,-0.9886474609375,-0.0839691162109375,-0.035736083984375
1638754173916987100,4.249987060546875,-0.9876708984375,-0.085845947265625,-0.0351715087890625
1638754173927007200,4.26000732421875,-0.9860992431640625,-0.0870361328125,-0.034698486328125
1638754173937028000,4.270028076171875,-0.9865264892578125,-0.087066650390625,-0.0333099365234375
1638754173947048200,4.280048095703125,-0.986602783203125,-0.0852203369140625,-0.0310516357421875
1638754173957069000,4.290069091796875,-0.98583984375,-0.082550048828125,-0.0296630859375
1638754173967089200,4.300089111328125,-0.98651123046875,-0.079681396484375,-0.029022216796875
1638754173977110300,4.3101103515625,-0.987274169921875,-0.0782318115234375,-0.0286865234375
1638754173987131100,4.320131103515625,-0.98614501953125,-0.0769500732421875,-0.028564453125
1638754173997151200,4.330151123046875,-0.987884521484375,-0.0755462646484375,-0.028228759765625
1638754174007172000,4.340172119140625,-0.9876556396484375,-0.076385498046875,-0.027557373046875
1638754174017192200,4.350192138671875,-0.9860992431640625,-0.0763092041015625,-0.0277557373046875
1638754174027213000,4.360213134765625,-0.986663818359375,-0.07696533203125,-0.02825927734375
1638754174037233200,4.370233154296875,-0.9872283935546875,-0.0769195556640625,-0.02850341796875
1638754174047254000,4.38025390625,-0.986175537109375,-0.076873779296875,-0.0292205810546875
1638754174057273900,4.39027392578125,-0.9868316650390625,-0.0760498046875,-0.0297393798828125
1638754174067294700,4.400294677734375,-0.98663330078125,-0.075714111328125,-0.031280517578125
1638754174077315800,4.41031591796875,-0.987152099609375,-0.0749053955078125,-0.031982421875
1638754174087336000,4.4203359375,-0.987396240234375,-0.07476806640625,-0.0330352783203125
1638754174097356800,4.430356689453125,-0.987518310546875,-0.0734100341796875,-0.0340118408203125
1638754174107377000,4.440376953125,-0.9879913330078125,-0.073944091796875,-0.0343475341796875
1638754174117397800,4.450397705078125,-0.987152099609375,-0.073455810546875,-0.0347442626953125
1638754174127417900,4.46041796875,-0.9864959716796875,-0.0745849609375,-0.035125732421875
1638754174137438700,4.470438720703125,-0.9861907958984375,-0.0759124755859375,-0.03424072265625
1638754174147460000,4.480460205078125,-0.9871673583984375,-0.0767059326171875,-0.03448486328125
1638754174157479700,4.490479736328125,-0.9875640869140625,-0.0765228271484375,-0.0354766845703125
1638754174167501000,4.5005009765625,-0.9882354736328125,-0.0781402587890625,-0.0349273681640625
1638754174177520600,4.510520751953125,-0.98748779296875,-0.079132080078125,-0.0333099365234375
1638754174187542000,4.5205419921875,-0.986785888671875,-0.0791168212890625,-0.0338592529296875
1638754174197561900,4.530561767578125,-0.9859161376953125,-0.079071044921875,-0.0339202880859375
1638754174207583000,4.5405830078125,-0.9861907958984375,-0.0789947509765625,-0.034393310546875
1638754174217603800,4.550603759765625,-0.986907958984375,-0.0792388916015625,-0.034698486328125
1638754174227624000,4.5606240234375,-0.9866943359375,-0.078948974609375,-0.0340423583984375
1638754174237644800,4.570644775390625,-0.987274169921875,-0.079345703125,-0.0339508056640625
1638754174247665000,4.580664794921875,-0.987030029296875,-0.079132080078125,-0.0347137451171875
1638754174257686000,4.59068603515625,-0.9864654541015625,-0.0789794921875,-0.0333709716796875
1638754174267705900,4.600705810546875,-0.9868316650390625,-0.0786590576171875,-0.034271240234375
1638754174277727000,4.61072705078125,-0.98577880859375,-0.0794830322265625,-0.0337677001953125
1638754174287746800,4.620746826171875,-0.9862518310546875,-0.0778961181640625,-0.0333404541015625
1638754174297768000,4.630767822265625,-0.9869537353515625,-0.077239990234375,-0.0322265625
1638754174307788800,4.640788818359375,-0.987091064453125,-0.078338623046875,-0.0328369140625
1638754174317809000,4.650808837890625,-0.98687744140625,-0.0769805908203125,-0.0328216552734375
1638754174327829800,4.660829833984375,-0.9868011474609375,-0.0761566162109375,-0.0325927734375
1638754174337849900,4.670849853515625,-0.9860687255859375,-0.0774688720703125,-0.032470703125
1638754174347870700,4.68087060546875,-0.9853515625,-0.0764312744140625,-0.0326080322265625
1638754174357890800,4.690890869140625,-0.9859161376953125,-0.07562255859375,-0.0339813232421875
1638754174367912000,4.700911865234375,-0.9864501953125,-0.0767364501953125,-0.0341796875
1638754174377932800,4.710932861328125,-0.987762451171875,-0.076873779296875,-0.035003662109375
1638754174387953000,4.720952880859375,-0.9875030517578125,-0.0760955810546875,-0.033203125
1638754174397973800,4.730973876953125,-0.9873199462890625,-0.075927734375,-0.03338623046875
1638754174407993900,4.740993896484375,-0.9869537353515625,-0.076324462890625,-0.0337066650390625
1638754174418014700,4.7510146484375,-0.98663330078125,-0.076690673828125,-0.0329437255859375
1638754174428034800,4.761034912109375,-0.986480712890625,-0.076812744140625,-0.0325164794921875
1638754174438055700,4.7710556640625,-0.9872894287109375,-0.077606201171875,-0.0330352783203125
1638754174448077000,4.7810771484375,-0.9880523681640625,-0.0774688720703125,-0.033203125
1638754174458097000,4.791096923828125,-0.98687744140625,-0.078094482421875,-0.03289794921875
1638754174468118000,4.801117919921875,-0.9872894287109375,-0.077880859375,-0.0332183837890625
1638754174478137900,4.811137939453125,-0.986968994140625,-0.0772705078125,-0.0335235595703125
1638754174488159000,4.821158935546875,-0.985992431640625,-0.077423095703125,-0.0330352783203125
1638754174498179000,4.831178955078125,-0.9864349365234375,-0.076873779296875,-0.0323944091796875
1638754174508200000,4.841199951171875,-0.9869232177734375,-0.07769775390625,-0.0332183837890625
1638754174518220000,4.851219970703125,-0.9861297607421875,-0.0780487060546875,-0.0330963134765625
1638754174528241000,4.861240966796875,-0.987030029296875,-0.07745361328125,-0.033843994140625
1638754174538262000,4.871261962890625,-0.9868927001953125,-0.0776519775390625,-0.0332794189453125
1638754174548281900,4.88128173828125,-0.9871978759765625,-0.0776519775390625,-0.0323486328125
1638754174558303000,4.891302978515625,-0.9866790771484375,-0.0772705078125,-0.0326385498046875
1638754174568322800,4.90132275390625,-0.98724365234375,-0.0775909423828125,-0.033203125
1638754174578344000,4.911343994140625,-0.98663330078125,-0.0767822265625,-0.03338623046875
1638754174588363800,4.92136376953125,-0.987030029296875,-0.076934814453125,-0.0326690673828125
1638754174598385000,4.931385009765625,-0.9858856201171875,-0.077056884765625,-0.0327606201171875
1638754174608405800,4.94140576171875,-0.986602783203125,-0.0765838623046875,-0.033233642578125
1638754174618425900,4.95142578125,-0.986328125,-0.07708740234375,-0.03375244140625
1638754174628446700,4.96144677734375,-0.986083984375,-0.076751708984375,-0.0340576171875
1638754174638466800,4.971466796875,-0.9873199462890625,-0.076629638671875,-0.0349273681640625
1638754174648487700,4.98148779296875,-0.9859161376953125,-0.0766448974609375,-0.0346832275390625
1638754174658507800,4.9915078125,-0.9869537353515625,-0.0764923095703125,-0.0340423583984375
1638754174668529000,5.00152880859375,-0.98785400390625,-0.076812744140625,-0.033599853515625
1638754174678549800,5.0115498046875,-0.9867095947265625,-0.0774688720703125,-0.0345611572265625
1638754174688569900,5.02156982421875,-0.986541748046875,-0.077423095703125,-0.034759521484375
1638754174698590700,5.0315908203125,-0.987030029296875,-0.077606201171875,-0.0335235595703125
1638754174708610800,5.04161083984375,-0.9873046875,-0.078033447265625,-0.0335693359375
1638754174718632000,5.0516318359375,-0.987030029296875,-0.0782623291015625,-0.03350830078125
1638754174728651800,5.06165185546875,-0.98638916015625,-0.07861328125,-0.033233642578125
1638754174738673000,5.0716728515625,-0.9871826171875,-0.0785064697265625,-0.033538818359375
1638754174748694000,5.081694091796875,-0.9866180419921875,-0.0773468017578125,-0.0331878662109375
1638754174758713900,5.0917138671875,-0.986480712890625,-0.078338623046875,-0.0343780517578125
1638754174768735000,5.10173486328125,-0.98687744140625,-0.077667236328125,-0.0334625244140625
1638754174778755000,5.111755126953125,-0.98699951171875,-0.07745361328125,-0.0334625244140625
1638754174788776000,5.12177587890625,-0.986572265625,-0.0774993896484375,-0.0340728759765625
1638754174798796000,5.131796142578125,-0.987213134765625,-0.0773162841796875,-0.033416748046875
1638754174808817000,5.14181689453125,-0.986419677734375,-0.076995849609375,-0.03350830078125
1638754174818837000,5.1518369140625,-0.98663330078125,-0.0776519775390625,-0.033843994140625
1638754174828857900,5.16185791015625,-0.98663330078125,-0.076873779296875,-0.034515380859375
1638754174838879000,5.17187890625,-0.9866485595703125,-0.0773162841796875,-0.03436279296875
1638754174848898800,5.18189892578125,-0.985992431640625,-0.0775604248046875,-0.034637451171875
1638754174858920000,5.191919921875,-0.9867706298828125,-0.076934814453125,-0.034088134765625
1638754174868939800,5.201939697265625,-0.9869842529296875,-0.0770263671875,-0.0339508056640625
1638754174878961000,5.2119609375,-0.9872894287109375,-0.07794189453125,-0.033905029296875
1638754174888981000,5.22198095703125,-0.9869384765625,-0.0773773193359375,-0.0337371826171875
1638754174899001900,5.232001953125,-0.9866485595703125,-0.0770263671875,-0.0328826904296875
1638754174909022700,5.242022705078125,-0.985809326171875,-0.0774993896484375,-0.0333709716796875
1638754174919042800,5.252042724609375,-0.985931396484375,-0.0770263671875,-0.03265380859375
1638754174929063700,5.262063720703125,-0.9866180419921875,-0.0769500732421875,-0.03253173828125
1638754174939083800,5.272083740234375,-0.9873504638671875,-0.077606201171875,-0.0321197509765625
1638754174949105000,5.28210498046875,-0.98651123046875,-0.0774688720703125,-0.0330352783203125
1638754174959124700,5.292124755859375,-0.9877777099609375,-0.07733154296875,-0.033050537109375
1638754174969145900,5.302145751953125,-0.98699951171875,-0.076629638671875,-0.0335540771484375
1638754174979165700,5.312165771484375,-0.986297607421875,-0.0777435302734375,-0.0335845947265625
1638754174989186800,5.322186767578125,-0.987457275390625,-0.0773162841796875,-0.0343170166015625
1638754174999208000,5.3322080078125,-0.9867401123046875,-0.076934814453125,-0.034820556640625
1638754175009227800,5.342227783203125,-0.9866180419921875,-0.0771484375,-0.0352783203125
1638754175019249000,5.352248779296875,-0.985931396484375,-0.077880859375,-0.03515625
1638754175029269000,5.36226904296875,-0.9873504638671875,-0.078094482421875,-0.0352935791015625
1638754175039289900,5.372289794921875,-0.987548828125,-0.0772857666015625,-0.0339813232421875
1638754175049310000,5.38231005859375,-0.98773193359375,-0.0771942138671875,-0.033203125
1638754175059330600,5.39233056640625,-0.98699951171875,-0.077239990234375,-0.033172607421875
1638754175069351400,5.402351318359375,-0.9871978759765625,-0.078277587890625,-0.0328216552734375
1638754175079371500,5.41237158203125,-0.9857025146484375,-0.077667236328125,-0.0332183837890625
1638754175089392400,5.422392333984375,-0.98553466796875,-0.0779571533203125,-0.032989501953125
1638754175099412500,5.43241259765625,-0.9869232177734375,-0.07720947265625,-0.0334625244140625
1638754175109433300,5.442433349609375,-0.9866485595703125,-0.0777740478515625,-0.032989501953125
1638754175119453400,5.452453369140625,-0.986114501953125,-0.077911376953125,-0.0326690673828125
1638754175129474300,5.462474365234375,-0.985809326171875,-0.07769775390625,-0.0321502685546875
1638754175139495400,5.472495361328125,-0.986053466796875,-0.077178955078125,-0.03167724609375
1638754175149515300,5.482515380859375,-0.9853668212890625,-0.076690673828125,-0.031707763671875
1638754175159536400,5.492536376953125,-0.9844970703125,-0.07598876953125,-0.03118896484375
1638754175169556500,5.502556396484375,-0.984405517578125,-0.0762176513671875,-0.0301666259765625
1638754175179577300,5.512577392578125,-0.9848175048828125,-0.07586669921875,-0.0313873291015625
1638754175189597400,5.522597412109375,-0.9859161376953125,-0.0756072998046875,-0.0311737060546875
1638754175199618300,5.532618408203125,-0.9848785400390625,-0.07708740234375,-0.0315704345703125
1638754175209639400,5.542639404296875,-0.9854278564453125,-0.07647705078125,-0.032623291015625
1638754175219659300,5.5526591796875,-0.986785888671875,-0.07647705078125,-0.0310211181640625
1638754175229680400,5.562680419921875,-0.9869384765625,-0.076446533203125,-0.03082275390625
1638754175239700200,5.5727001953125,-0.98712158203125,-0.076324462890625,-0.0302276611328125
1638754175249721600,5.5827216796875,-0.9888916015625,-0.0769195556640625,-0.02801513671875
1638754175259741200,5.5927412109375,-0.9882659912109375,-0.0788116455078125,-0.0282135009765625
1638754175269762600,5.602762451171875,-0.9843292236328125,-0.0852203369140625,-0.0326995849609375
1638754175279782400,5.612782470703125,-0.98089599609375,-0.08868408203125,-0.0319061279296875
1638754175289803500,5.622803466796875,-0.981842041015625,-0.0849456787109375,-0.0377197265625
1638754175299824400,5.632824462890625,-0.9898529052734375,-0.074371337890625,-0.0416259765625
1638754175309844500,5.642844482421875,-0.996063232421875,-0.06610107421875,-0.0408172607421875
1638754175319865300,5.652865234375,-0.9947052001953125,-0.06634521484375,-0.0421600341796875
1638754175329885400,5.662885498046875,-0.9898834228515625,-0.06781005859375,-0.04071044921875
1638754175339906600,5.672906494140625,-0.9869232177734375,-0.072265625,-0.0423126220703125
1638754175349926400,5.682926513671875,-0.9844970703125,-0.0758819580078125,-0.044097900390625
1638754175359947500,5.692947509765625,-0.9845428466796875,-0.0814971923828125,-0.0457305908203125
1638754175369968400,5.702968505859375,-0.984405517578125,-0.08782958984375,-0.0451507568359375
1638754175379988500,5.712988525390625,-0.9851226806640625,-0.092498779296875,-0.0438079833984375
1638754175390009300,5.72300927734375,-0.989410400390625,-0.09307861328125,-0.041168212890625
1638754175400029400,5.733029541015625,-0.991546630859375,-0.0902252197265625,-0.0388031005859375
1638754175410050300,5.74305029296875,-0.9910736083984375,-0.084869384765625,-0.03631591796875
1638754175420070400,5.7530703125,-0.9866485595703125,-0.0818634033203125,-0.03497314453125
1638754175430091300,5.76309130859375,-0.9821929931640625,-0.07989501953125,-0.0383148193359375
1638754175440111400,5.773111328125,-0.9784393310546875,-0.0770263671875,-0.0404510498046875
1638754175450132500,5.783132568359375,-0.979827880859375,-0.07452392578125,-0.043609619140625
1638754175460153300,5.7931533203125,-0.985443115234375,-0.076507568359375,-0.04296875
1638754175470173400,5.80317333984375,-0.9907073974609375,-0.0805511474609375,-0.0391845703125
1638754175480194300,5.8131943359375,-0.9901123046875,-0.0852203369140625,-0.03753662109375
1638754175490214400,5.82321435546875,-0.98870849609375,-0.089813232421875,-0.0413360595703125
1638754175500235300,5.8332353515625,-0.989044189453125,-0.09515380859375,-0.044647216796875
1638754175510255400,5.84325537109375,-0.9895782470703125,-0.0976715087890625,-0.0421142578125
1638754175520276200,5.853276123046875,-0.987091064453125,-0.0917816162109375,-0.04229736328125
1638754175530297600,5.863297607421875,-0.9869384765625,-0.0891571044921875,-0.042083740234375
1638754175540317200,5.873317138671875,-0.9867401123046875,-0.0881805419921875,-0.039703369140625
1638754175550338600,5.883338623046875,-0.9855194091796875,-0.0812835693359375,-0.041107177734375
1638754175560358400,5.8933583984375,-0.9894561767578125,-0.0769500732421875,-0.0402374267578125
1638754175570379500,5.903379638671875,-0.9898529052734375,-0.0771484375,-0.0392608642578125
1638754175580399600,5.913399658203125,-0.9874267578125,-0.0774688720703125,-0.0368194580078125
1638754175590420500,5.92342041015625,-0.9874420166015625,-0.07977294921875,-0.0389404296875
1638754175600441300,5.93344140625,-0.9891357421875,-0.0814056396484375,-0.037200927734375
1638754175610461400,5.94346142578125,-0.990936279296875,-0.0826873779296875,-0.035858154296875
1638754175620482600,5.953482666015625,-0.9903717041015625,-0.080657958984375,-0.036590576171875
1638754175630502400,5.96350244140625,-0.98858642578125,-0.07940673828125,-0.03619384765625
1638754175640523500,5.9735234375,-0.9843292236328125,-0.0818328857421875,-0.0366363525390625
1638754175650543400,5.98354345703125,-0.98291015625,-0.083648681640625,-0.034942626953125
1638754175660564500,5.993564453125,-0.982574462890625,-0.0826873779296875,-0.03619384765625
1638754175670584300,6.003584228515625,-0.9840850830078125,-0.0800018310546875,-0.0340423583984375
1638754175680605400,6.01360546875,-0.9876708984375,-0.0795440673828125,-0.031097412109375
1638754175690626300,6.023626220703125,-0.98736572265625,-0.077880859375,-0.030303955078125
1638754175700646400,6.033646484375,-0.9866180419921875,-0.076507568359375,-0.0280609130859375
1638754175710667300,6.043667236328125,-0.98577880859375,-0.07806396484375,-0.026214599609375
1638754175720687400,6.053687255859375,-0.984344482421875,-0.079498291015625,-0.0244598388671875
1638754175730708500,6.06370849609375,-0.9817657470703125,-0.0804290771484375,-0.023101806640625
1638754175740728300,6.073728271484375,-0.977935791015625,-0.082763671875,-0.0226287841796875
1638754175750749400,6.08374951171875,-0.9717559814453125,-0.086700439453125,-0.022979736328125
1638754175760770300,6.093770263671875,-0.9658660888671875,-0.0909881591796875,-0.0197296142578125
1638754175770790400,6.103790283203125,-0.960723876953125,-0.0965423583984375,-0.0132598876953125
1638754175780811300,6.113811279296875,-0.9582672119140625,-0.0928497314453125,-0.006011962890625
1638754175790831400,6.123831298828125,-0.966552734375,-0.074249267578125,-0.0051727294921875
1638754175800852200,6.133852294921875,-0.9924774169921875,-0.05224609375,-0.003631591796875
1638754175810872300,6.143872314453125,-1.027679443359375,-0.048797607421875,-0.0096435546875
1638754175820893400,6.1538935546875,-1.05242919921875,-0.0505828857421875,-0.0257720947265625
1638754175830914600,6.16391455078125,-1.0404815673828125,-0.044921875,-0.0540008544921875
1638754175840934400,6.173934326171875,-1.000732421875,-0.0465240478515625,-0.0832061767578125
1638754175850955500,6.18395556640625,-0.96783447265625,-0.0703582763671875,-0.1008453369140625
1638754175860975600,6.1939755859375,-0.9544525146484375,-0.0960845947265625,-0.096099853515625
1638754175870996500,6.20399658203125,-0.959564208984375,-0.0993804931640625,-0.0808868408203125
1638754175881016600,6.2140166015625,-0.9782562255859375,-0.0911102294921875,-0.065185546875
1638754175891037400,6.224037353515625,-1.0021820068359375,-0.081573486328125,-0.0369873046875
1638754175901057500,6.2340576171875,-1.0113372802734375,-0.0737762451171875,-0.010009765625
1638754175911078400,6.244078369140625,-1.002960205078125,-0.0676727294921875,0.0054931640625
1638754175921099500,6.254099609375,-0.9845733642578125,-0.0630950927734375,0.0070343017578125
1638754175931119400,6.264119384765625,-0.97039794921875,-0.06207275390625,0.0002593994140625
1638754175941140500,6.274140380859375,-0.969024658203125,-0.062957763671875,-0.008209228515625
1638754175951160300,6.284160400390625,-0.979278564453125,-0.068328857421875,-0.0175933837890625
1638754175961181400,6.294181396484375,-0.990081787109375,-0.0738067626953125,-0.0282440185546875
1638754175971201500,6.304201416015625,-0.9945068359375,-0.0776214599609375,-0.0390472412109375
1638754175981222400,6.314222412109375,-0.991790771484375,-0.0797576904296875,-0.04412841796875
1638754175991243300,6.3242431640625,-0.9864654541015625,-0.0823974609375,-0.0404052734375
1638754176001263400,6.334263427734375,-0.978851318359375,-0.08349609375,-0.033843994140625
1638754176011284200,6.3442841796875,-0.9772186279296875,-0.0829620361328125,-0.028717041015625
1638754176021304300,6.35430419921875,-0.9816741943359375,-0.0799407958984375,-0.024017333984375
1638754176031325400,6.364325439453125,-0.986541748046875,-0.075958251953125,-0.021697998046875
1638754176041345300,6.37434521484375,-0.9904632568359375,-0.0734710693359375,-0.02130126953125
1638754176051366400,6.384366455078125,-0.991668701171875,-0.0731353759765625,-0.024169921875
1638754176061387000,6.394386962890625,-0.9915008544921875,-0.0721435546875,-0.027984619140625
1638754176071408000,6.404408203125,-0.9911651611328125,-0.071807861328125,-0.030364990234375
1638754176081429000,6.414428955078125,-0.989349365234375,-0.0715789794921875,-0.030670166015625
1638754176091449000,6.424448974609375,-0.98736572265625,-0.0712890625,-0.0289154052734375
1638754176101470200,6.43447021484375,-0.9868011474609375,-0.0721588134765625,-0.0288543701171875
1638754176111490000,6.444489990234375,-0.986968994140625,-0.072662353515625,-0.0297698974609375
1638754176121511200,6.45451123046875,-0.986236572265625,-0.07391357421875,-0.03045654296875
1638754176131531300,6.46453125,-0.98785400390625,-0.074249267578125,-0.030609130859375
1638754176141552000,6.47455224609375,-0.9891510009765625,-0.0733489990234375,-0.02996826171875
1638754176151573200,6.4845732421875,-0.9893341064453125,-0.0722808837890625,-0.0291748046875
1638754176161593000,6.494593017578125,-0.98846435546875,-0.071075439453125,-0.030517578125
1638754176171614200,6.5046142578125,-0.9871978759765625,-0.0705718994140625,-0.0312957763671875
1638754176181634300,6.51463427734375,-0.986602783203125,-0.0706634521484375,-0.032196044921875
1638754176191655200,6.5246552734375,-0.9864501953125,-0.070892333984375,-0.0326080322265625
1638754176201675300,6.53467529296875,-0.9870147705078125,-0.0718841552734375,-0.0328521728515625
1638754176211696000,6.544696044921875,-0.9873504638671875,-0.07305908203125,-0.0328369140625
1638754176221717000,6.554717041015625,-0.986572265625,-0.07354736328125,-0.0323944091796875
1638754176231737000,6.564737060546875,-0.987396240234375,-0.0743865966796875,-0.0321044921875
1638754176241758200,6.57475830078125,-0.986541748046875,-0.0750732421875,-0.0305938720703125
1638754176251778000,6.584778076171875,-0.9853668212890625,-0.074371337890625,-0.03082275390625
1638754176261799200,6.594799072265625,-0.98626708984375,-0.0742034912109375,-0.03143310546875
1638754176271819000,6.604819091796875,-0.9865264892578125,-0.07305908203125,-0.03131103515625
1638754176281840000,6.614840087890625,-0.987091064453125,-0.0737152099609375,-0.0313873291015625
1638754176291860200,6.624860107421875,-0.987060546875,-0.07391357421875,-0.0317535400390625
1638754176301881000,6.634881103515625,-0.987274169921875,-0.073333740234375,-0.032440185546875
1638754176311902000,6.64490185546875,-0.9867095947265625,-0.073760986328125,-0.0335845947265625
1638754176321922000,6.654922119140625,-0.9883270263671875,-0.0737457275390625,-0.0332183837890625
1638754176331943000,6.66494287109375,-0.98956298828125,-0.0733795166015625,-0.0329742431640625
1638754176341963000,6.674962890625,-0.988189697265625,-0.075286865234375,-0.033538818359375
1638754176351984000,6.684984130859375,-0.9866180419921875,-0.0747222900390625,-0.0325775146484375
1638754176362004000,6.69500390625,-0.9863739013671875,-0.0753173828125,-0.0308837890625
1638754176372025000,6.705025146484375,-0.986663818359375,-0.07501220703125,-0.0298309326171875
1638754176382046200,6.715046142578125,-0.9877777099609375,-0.0745086669921875,-0.030303955078125
1638754176392066000,6.725066162109375,-0.987518310546875,-0.0742034912109375,-0.0289764404296875
1638754176402087200,6.735087158203125,-0.987060546875,-0.0742340087890625,-0.027984619140625
1638754176412107300,6.745107177734375,-0.9871978759765625,-0.07366943359375,-0.028106689453125
1638754176422128000,6.755128173828125,-0.9868621826171875,-0.07330322265625,-0.028717041015625
1638754176432148200,6.765148193359375,-0.987823486328125,-0.0732421875,-0.0276641845703125
1638754176442169000,6.775169189453125,-0.988189697265625,-0.07232666015625,-0.0287933349609375
1638754176452190200,6.785190185546875,-0.9889068603515625,-0.07208251953125,-0.0285797119140625
1638754176462210300,6.795210205078125,-0.98760986328125,-0.072265625,-0.029144287109375
1638754176472231200,6.805231201171875,-0.986572265625,-0.0728912353515625,-0.0302886962890625
1638754176482251300,6.815251220703125,-0.98712158203125,-0.0728759765625,-0.0298309326171875
1638754176492272000,6.825272216796875,-0.987884521484375,-0.072357177734375,-0.029937744140625
1638754176502292200,6.835292236328125,-0.9875946044921875,-0.07220458984375,-0.03076171875
1638754176512313000,6.84531298828125,-0.9875335693359375,-0.0721435546875,-0.0306854248046875
1638754176522333200,6.855333251953125,-0.9862213134765625,-0.072418212890625,-0.03125
1638754176532354000,6.86535400390625,-0.986480712890625,-0.0721588134765625,-0.03021240234375
1638754176542375200,6.875375244140625,-0.9868011474609375,-0.0724029541015625,-0.030059814453125
1638754176552395000,6.88539501953125,-0.9871063232421875,-0.072052001953125,-0.0297088623046875
1638754176562416000,6.895416015625,-0.9866790771484375,-0.0721893310546875,-0.0305023193359375
1638754176572436000,6.90543603515625,-0.987213134765625,-0.072174072265625,-0.030242919921875
1638754176582457000,6.91545703125,-0.9864349365234375,-0.0720672607421875,-0.03021240234375
1638754176592477200,6.925477294921875,-0.9875335693359375,-0.073577880859375,-0.0302276611328125
1638754176602498000,6.935498046875,-0.9872589111328125,-0.0736083984375,-0.0309295654296875
1638754176612519000,6.945518798828125,-0.9869842529296875,-0.07330322265625,-0.031219482421875
1638754176622539000,6.9555390625,-0.9870147705078125,-0.0733795166015625,-0.03094482421875
1638754176632560000,6.96556005859375,-0.986907958984375,-0.0737457275390625,-0.0305938720703125
1638754176642580000,6.975580078125,-0.9877166748046875,-0.0742645263671875,-0.0312042236328125
1638754176652601000,6.98560107421875,-0.98797607421875,-0.073638916015625,-0.031341552734375
1638754176662621000,6.995620849609375,-0.9869537353515625,-0.0737457275390625,-0.0304107666015625
1638754176672642300,7.005642333984375,-0.98699951171875,-0.0741729736328125,-0.0310516357421875
1638754176682663200,7.0156630859375,-0.9882049560546875,-0.0739898681640625,-0.0311279296875
1638754176692683300,7.025683349609375,-0.9875335693359375,-0.073211669921875,-0.0305328369140625
1638754176702704000,7.0357041015625,-0.98712158203125,-0.0735931396484375,-0.0301971435546875
1638754176712724200,7.04572412109375,-0.9873809814453125,-0.0732879638671875,-0.0305023193359375
1638754176722745000,7.0557451171875,-0.9866485595703125,-0.0735626220703125,-0.0314483642578125
1638754176732765200,7.06576513671875,-0.9870147705078125,-0.0735931396484375,-0.0316619873046875
1638754176742786000,7.0757861328125,-0.986846923828125,-0.0728912353515625,-0.030242919921875
1638754176752806100,7.08580615234375,-0.9873046875,-0.073272705078125,-0.0296173095703125
1638754176762827300,7.0958271484375,-0.9867706298828125,-0.0731048583984375,-0.030364990234375
1638754176772848000,7.10584814453125,-0.9875640869140625,-0.0733795166015625,-0.0303497314453125
1638754176782868200,7.1158681640625,-0.9878692626953125,-0.0728607177734375,-0.02996826171875
1638754176792889000,7.12588916015625,-0.9873504638671875,-0.072052001953125,-0.029632568359375
1638754176802909200,7.1359091796875,-0.9869537353515625,-0.0724334716796875,-0.029449462890625
1638754176812930000,7.145929931640625,-0.98651123046875,-0.07275390625,-0.0299224853515625
1638754176822950100,7.1559501953125,-0.98748779296875,-0.072601318359375,-0.03076171875
1638754176832971000,7.165970947265625,-0.9873504638671875,-0.07305908203125,-0.0302581787109375
1638754176842992000,7.1759921875,-0.987823486328125,-0.072540283203125,-0.0304107666015625
1638754176853012000,7.186011962890625,-0.9861297607421875,-0.0722198486328125,-0.02996826171875
1638754176863033000,7.196033203125,-0.98602294921875,-0.0722198486328125,-0.02947998046875
1638754176873053200,7.20605322265625,-0.9879150390625,-0.07220458984375,-0.0295257568359375
1638754176883074000,7.216073974609375,-0.988372802734375,-0.07293701171875,-0.030120849609375
1638754176893094100,7.22609423828125,-0.986114501953125,-0.073638916015625,-0.02923583984375
1638754176903115000,7.236114990234375,-0.9864654541015625,-0.0741119384765625,-0.0312957763671875
1638754176913135000,7.246135009765625,-0.9864959716796875,-0.0743408203125,-0.031036376953125
1638754176923156000,7.256156005859375,-0.9853973388671875,-0.0736541748046875,-0.0308837890625
1638754176933177300,7.26617724609375,-0.9855804443359375,-0.0728302001953125,-0.030517578125
1638754176943197000,7.276197021484375,-0.9862518310546875,-0.07220458984375,-0.0305938720703125
1638754176953218300,7.28621826171875,-0.98809814453125,-0.071746826171875,-0.0302734375
1638754176963238000,7.29623779296875,-0.9885711669921875,-0.072021484375,-0.0296630859375
1638754176973259300,7.30625927734375,-0.988616943359375,-0.0723724365234375,-0.029449462890625
1638754176983279000,7.316279052734375,-0.98858642578125,-0.0718841552734375,-0.029510498046875
1638754176993300200,7.32630029296875,-0.9870147705078125,-0.0720672607421875,-0.030181884765625
1638754177003321000,7.336321044921875,-0.9881744384765625,-0.072723388671875,-0.0300750732421875
1638754177013341200,7.346341064453125,-0.987274169921875,-0.074310302734375,-0.0312347412109375
1638754177023362000,7.356362060546875,-0.9857330322265625,-0.0741119384765625,-0.0312957763671875
1638754177033382100,7.366382080078125,-0.985443115234375,-0.0735626220703125,-0.032684326171875
1638754177043403300,7.3764033203125,-0.9857940673828125,-0.0740509033203125,-0.0328826904296875
1638754177053423000,7.386423095703125,-0.9857177734375,-0.0730438232421875,-0.032867431640625
1638754177063444000,7.39644384765625,-0.98785400390625,-0.0733489990234375,-0.0304412841796875
1638754177073463800,7.4064638671875,-0.9881134033203125,-0.0743408203125,-0.0280914306640625
1638754177083485000,7.41648486328125,-0.9860382080078125,-0.0740966796875,-0.02459716796875
1638754177093505800,7.426505859375,-0.9856109619140625,-0.0743865966796875,-0.023162841796875
1638754177103526000,7.43652587890625,-0.9845428466796875,-0.0758514404296875,-0.0226898193359375
1638754177113546800,7.446546630859375,-0.9828033447265625,-0.077056884765625,-0.0211944580078125
1638754177123566800,7.45656689453125,-0.9814605712890625,-0.0744781494140625,-0.018768310546875
1638754177133587700,7.466587646484375,-0.98199462890625,-0.0726470947265625,-0.0173492431640625
1638754177143607800,7.47660791015625,-0.9802093505859375,-0.072265625,-0.0170135498046875
1638754177153629000,7.48662890625,-0.9769134521484375,-0.0722503662109375,-0.0195770263671875
1638754177163649800,7.49664990234375,-0.9783782958984375,-0.069915771484375,-0.0283050537109375
1638754177173670000,7.506669921875,-0.98193359375,-0.0673980712890625,-0.0415802001953125
1638754177183690800,7.516690673828125,-0.9894561767578125,-0.066619873046875,-0.053802490234375
1638754177193710800,7.5267109375,-0.996063232421875,-0.067474365234375,-0.0631561279296875
1638754177203731700,7.536731689453125,-1.0008544921875,-0.0732879638671875,-0.0603179931640625
1638754177213751800,7.546751708984375,-0.995086669921875,-0.07635498046875,-0.045623779296875
1638754177223772700,7.556772705078125,-0.9848175048828125,-0.0761871337890625,-0.0296478271484375
1638754177233792800,7.566792724609375,-0.9779815673828125,-0.0777130126953125,-0.01922607421875
1638754177243813600,7.576813720703125,-0.9764862060546875,-0.081329345703125,-0.0121002197265625
1638754177253835000,7.5868349609375,-0.9806365966796875,-0.08880615234375,-0.0107574462890625
1638754177263855000,7.596855224609375,-0.9877166748046875,-0.0920257568359375,-0.01739501953125
1638754177273876000,7.6068759765625,-0.9931640625,-0.089080810546875,-0.0287933349609375
1638754177283896000,7.61689599609375,-0.989044189453125,-0.08087158203125,-0.0417633056640625
1638754177293917000,7.6269169921875,-0.983551025390625,-0.07257080078125,-0.051177978515625
1638754177303937000,7.63693701171875,-0.983673095703125,-0.07275390625,-0.060546875
1638754177313958000,7.6469580078125,-0.9920501708984375,-0.0760345458984375,-0.0648651123046875
1638754177323979000,7.65697900390625,-1.0005645751953125,-0.0760650634765625,-0.0638427734375
1638754177333998800,7.666998779296875,-1.0047149658203125,-0.0743865966796875,-0.059326171875
1638754177344020000,7.67702001953125,-1.001861572265625,-0.0750885009765625,-0.051727294921875
1638754177354039800,7.687039794921875,-0.99432373046875,-0.0786590576171875,-0.0460968017578125
1638754177364061000,7.69706103515625,-0.986358642578125,-0.08001708984375,-0.04632568359375
1638754177374081000,7.7070810546875,-0.9835205078125,-0.0771026611328125,-0.046417236328125
1638754177384102000,7.717101806640625,-0.9860687255859375,-0.074066162109375,-0.0480499267578125
1638754177394122800,7.727122802734375,-0.99029541015625,-0.0721435546875,-0.0482025146484375
1638754177404142800,7.737142822265625,-0.9940032958984375,-0.0692138671875,-0.04266357421875
1638754177414163700,7.747163818359375,-0.99853515625,-0.0719146728515625,-0.0334014892578125
1638754177424183800,7.757183837890625,-0.995574951171875,-0.0748138427734375,-0.0324249267578125
1638754177434205000,7.767204833984375,-0.984619140625,-0.06939697265625,-0.0367584228515625
1638754177444224800,7.777224853515625,-0.98138427734375,-0.0679931640625,-0.040191650390625
1638754177454246000,7.787245849609375,-0.983367919921875,-0.069061279296875,-0.04266357421875
1638754177464266800,7.797266845703125,-0.9827880859375,-0.070709228515625,-0.04254150390625
1638754177474286800,7.807286865234375,-0.9837646484375,-0.069580078125,-0.038665771484375
1638754177484307700,7.8173076171875,-0.98895263671875,-0.0714874267578125,-0.035003662109375
1638754177494327800,7.827327880859375,-0.9900970458984375,-0.07586669921875,-0.0332489013671875
1638754177504348700,7.8373486328125,-0.9862518310546875,-0.07574462890625,-0.0324859619140625
1638754177514368800,7.84736865234375,-0.9835662841796875,-0.072601318359375,-0.03204345703125
1638754177524390000,7.857389892578125,-0.9844970703125,-0.0712127685546875,-0.0325775146484375
1638754177534409700,7.86740966796875,-0.986541748046875,-0.0723419189453125,-0.0329742431640625
1638754177544430800,7.877430908203125,-0.9859771728515625,-0.073699951171875,-0.033538818359375
1638754177554452000,7.887451904296875,-0.985687255859375,-0.0734405517578125,-0.0361480712890625
1638754177564472000,7.89747216796875,-0.9876708984375,-0.073272705078125,-0.0382232666015625
1638754177574493000,7.907492919921875,-0.9892578125,-0.0742950439453125,-0.038299560546875
1638754177584513000,7.917512939453125,-0.990997314453125,-0.076141357421875,-0.0359039306640625
1638754177594534000,7.927533935546875,-0.990478515625,-0.0799407958984375,-0.0320281982421875
1638754177604554000,7.937553955078125,-0.98504638671875,-0.081634521484375,-0.0293426513671875
1638754177614574800,7.947574951171875,-0.9809112548828125,-0.0822296142578125,-0.02972412109375
1638754177624596000,7.957595947265625,-0.9798126220703125,-0.08154296875,-0.031005859375
1638754177634615800,7.96761572265625,-0.9811859130859375,-0.0800933837890625,-0.032684326171875
1638754177644637000,7.977636962890625,-0.9863739013671875,-0.079559326171875,-0.0338287353515625
1638754177654656800,7.98765673828125,-0.98870849609375,-0.08050537109375,-0.0346221923828125
1638754177664678000,7.997677978515625,-0.9908447265625,-0.080169677734375,-0.0355987548828125
1638754177674698000,8.007697998046876,-0.9902191162109375,-0.0788726806640625,-0.036224365234375
1638754177684718800,8.01771875,-0.9899749755859375,-0.0796661376953125,-0.033660888671875
1638754177694739000,8.027739013671875,-0.9889984130859375,-0.0794219970703125,-0.030975341796875
1638754177704759800,8.037759765625,-0.9874267578125,-0.0781707763671875,-0.0290374755859375
1638754177714781000,8.047781005859376,-0.98583984375,-0.0760498046875,-0.0276947021484375
1638754177724800800,8.05780078125,-0.9851226806640625,-0.07525634765625,-0.0286102294921875
1638754177734822000,8.06782177734375,-0.98638916015625,-0.0733795166015625,-0.03009033203125
1638754177744841700,8.077841796875,-0.9871826171875,-0.074005126953125,-0.03265380859375
1638754177754862800,8.08786279296875,-0.9893951416015625,-0.0772552490234375,-0.033416748046875
1638754177764882700,8.097882568359376,-0.990447998046875,-0.079681396484375,-0.034576416015625
1638754177774903800,8.10790380859375,-0.98968505859375,-0.0787353515625,-0.035064697265625
1638754177784925000,8.117925048828125,-0.98626708984375,-0.078460693359375,-0.0341644287109375
1638754177794944800,8.12794482421875,-0.9826202392578125,-0.0774078369140625,-0.0296478271484375
1638754177804966000,8.1379658203125,-0.981414794921875,-0.06866455078125,-0.025390625
1638754177814985700,8.14798583984375,-0.9800872802734375,-0.0575714111328125,-0.0215301513671875
1638754177825006800,8.1580068359375,-0.971405029296875,-0.05712890625,-0.006561279296875
1638754177835027000,8.16802685546875,-0.9580078125,-0.0661163330078125,0.0086669921875
1638754177845048000,8.178048095703126,-0.95751953125,-0.08355712890625,-0.005096435546875
1638754177855068000,8.18806787109375,-0.9763336181640625,-0.1057891845703125,-0.0138397216796875
1638754177865089000,8.198089111328125,-1.013458251953125,-0.1297607421875,-0.02276611328125
1638754177875110000,8.20810986328125,-1.0425262451171875,-0.14251708984375,-0.0435791015625
1638754177885130000,8.2181298828125,-1.033203125,-0.1423797607421875,-0.056915283203125
1638754177895150800,8.22815087890625,-0.9889678955078125,-0.134124755859375,-0.0533294677734375
1638754177905171000,8.2381708984375,-0.9504852294921875,-0.094940185546875,-0.0423583984375
1638754177915191800,8.24819189453125,-0.94091796875,-0.035552978515625,-0.037322998046875
1638754177925212000,8.2582119140625,-0.961700439453125,0.0079193115234375,-0.0363922119140625
1638754177935232800,8.268232666015624,-0.992706298828125,0.0216522216796875,-0.0293121337890625
1638754177945254000,8.27825390625,-1.0104522705078125,0.019927978515625,-0.0260162353515625
1638754177955274000,8.28827392578125,-1.0174102783203125,0.0084381103515625,-0.0252532958984375
1638754177965294800,8.298294921875,-1.013763427734375,-0.0142669677734375,-0.025360107421875
1638754177975315000,8.30831494140625,-1.0014801025390625,-0.0443572998046875,-0.0304107666015625
1638754177985335800,8.318335693359375,-0.9888763427734375,-0.078125,-0.02435302734375
1638754177995356000,8.32835595703125,-0.9774932861328125,-0.102081298828125,-0.0094146728515625
1638754178005376800,8.338376708984375,-0.9697418212890625,-0.10931396484375,0.0022430419921875
1638754178015398000,8.34839794921875,-0.9751739501953125,-0.0991973876953125,0.0115814208984375
1638754178025417700,8.358417724609374,-0.9848785400390625,-0.075531005859375,0.0234527587890625
1638754178035438800,8.36843896484375,-0.9920196533203125,-0.0551300048828125,0.0252838134765625
1638754178045458700,8.378458740234375,-0.994049072265625,-0.045867919921875,0.01251220703125
1638754178055479600,8.3884794921875,-0.996185302734375,-0.0421600341796875,-0.0114288330078125
1638754178065499600,8.398499755859374,-0.997833251953125,-0.0391387939453125,-0.0371246337890625
1638754178075520500,8.4085205078125,-0.9983367919921875,-0.040313720703125,-0.059173583984375
1638754178085540600,8.41854052734375,-0.991912841796875,-0.050018310546875,-0.069793701171875
1638754178095561500,8.4285615234375,-0.98065185546875,-0.0631256103515625,-0.0700531005859375
1638754178105582600,8.43858251953125,-0.974212646484375,-0.0771484375,-0.0679931640625
1638754178115602400,8.4486025390625,-0.973876953125,-0.0847625732421875,-0.063323974609375
1638754178125623600,8.45862353515625,-0.9821014404296875,-0.0893096923828125,-0.0540771484375
1638754178135643400,8.468643310546875,-0.990997314453125,-0.090087890625,-0.042816162109375
1638754178145664500,8.47866455078125,-0.99310302734375,-0.0868682861328125,-0.03125
1638754178155684400,8.488684326171875,-0.9914703369140625,-0.0806427001953125,-0.0233001708984375
1638754178165705500,8.49870556640625,-0.988983154296875,-0.0731353759765625,-0.0216827392578125
1638754178175726600,8.5087265625,-0.987823486328125,-0.06591796875,-0.022735595703125
1638754178185746400,8.518746337890626,-0.9877471923828125,-0.06109619140625,-0.0251922607421875
1638754178195767600,8.528767578125,-0.9880828857421875,-0.060577392578125,-0.0284881591796875
1638754178205787400,8.538787353515625,-0.9877471923828125,-0.06207275390625,-0.0299224853515625
1638754178215808500,8.54880859375,-0.9876251220703125,-0.06658935546875,-0.0303497314453125
1638754178225828600,8.55882861328125,-0.9853973388671875,-0.07061767578125,-0.03082275390625
1638754178235849700,8.568849609375,-0.9847412109375,-0.0743408203125,-0.0289306640625
1638754178245870600,8.57887060546875,-0.9835052490234375,-0.076904296875,-0.02716064453125
1638754178255890700,8.588890625,-0.98431396484375,-0.0782470703125,-0.0241546630859375
1638754178265911600,8.59891162109375,-0.984039306640625,-0.0769195556640625,-0.0197906494140625
1638754178275931600,8.608931640625,-0.98394775390625,-0.07427978515625,-0.016021728515625
1638754178285952500,8.618952392578125,-0.9863433837890625,-0.0703277587890625,-0.011138916015625
1638754178295972600,8.62897265625,-0.9866485595703125,-0.066741943359375,-0.0086517333984375
1638754178305993500,8.638993408203126,-0.9870758056640625,-0.06353759765625,-0.0059051513671875
1638754178316013600,8.649013671875,-0.9865875244140625,-0.060791015625,-0.005462646484375
1638754178326034400,8.659034423828125,-0.9900360107421875,-0.060333251953125,-0.0089263916015625
1638754178336055600,8.6690556640625,-0.9908447265625,-0.061248779296875,-0.0118865966796875
1638754178346075600,8.67907568359375,-0.9913482666015625,-0.062835693359375,-0.0166778564453125
1638754178356096500,8.689096435546874,-0.9897003173828125,-0.0645599365234375,-0.022125244140625
1638754178366116600,8.69911669921875,-0.9894866943359375,-0.0657806396484375,-0.0264434814453125
1638754178376137500,8.709137451171875,-0.9885101318359375,-0.066925048828125,-0.027984619140625
1638754178386157600,8.719157470703125,-0.9891357421875,-0.06817626953125,-0.02874755859375
1638754178396178400,8.729178466796874,-0.9897308349609375,-0.0671844482421875,-0.028839111328125
1638754178406199600,8.739199462890625,-0.9897613525390625,-0.0660552978515625,-0.0257720947265625
1638754178416219400,8.749219482421875,-0.990264892578125,-0.0644683837890625,-0.0235595703125
1638754178426240500,8.759240478515625,-0.9906158447265625,-0.0627593994140625,-0.0216217041015625
1638754178436260400,8.76926025390625,-0.9915008544921875,-0.0621490478515625,-0.021148681640625
1638754178446281500,8.779281494140625,-0.989593505859375,-0.062896728515625,-0.0235595703125
1638754178456301600,8.789301513671875,-0.98779296875,-0.06292724609375,-0.0248870849609375
1638754178466322400,8.799322509765625,-0.9873809814453125,-0.0642242431640625,-0.0263671875
1638754178476342500,8.809342529296876,-0.9864501953125,-0.0654144287109375,-0.0281219482421875
1638754178486363600,8.81936376953125,-0.9869232177734375,-0.0677490234375,-0.029205322265625
1638754178496384500,8.829384521484375,-0.987030029296875,-0.068084716796875,-0.029449462890625
1638754178506404600,8.839404541015625,-0.9868011474609375,-0.0679473876953125,-0.029144287109375
1638754178516425700,8.84942578125,-0.9864349365234375,-0.0664215087890625,-0.029083251953125
1638754178526445600,8.859445556640624,-0.986785888671875,-0.0661163330078125,-0.028656005859375
1638754178536466700,8.869466796875,-0.9864959716796875,-0.065399169921875,-0.027862548828125
1638754178546486500,8.879486572265625,-0.9866485595703125,-0.06536865234375,-0.02783203125
1638754178556507600,8.889507568359376,-0.9876861572265625,-0.0649871826171875,-0.028167724609375
1638754178566528500,8.899528564453124,-0.988311767578125,-0.0646514892578125,-0.0280914306640625
1638754178576548600,8.909548583984375,-0.987823486328125,-0.065216064453125,-0.02923583984375
1638754178586569500,8.919569580078125,-0.987884521484375,-0.066375732421875,-0.031036376953125
1638754178596589600,8.929589599609375,-0.9877166748046875,-0.0673980712890625,-0.031829833984375
1638754178606610400,8.9396103515625,-0.9882354736328125,-0.0674285888671875,-0.0313873291015625
1638754178616630500,8.949630615234375,-0.987335205078125,-0.068267822265625,-0.0314788818359375
1638754178626651600,8.959651611328125,-0.9877777099609375,-0.067596435546875,-0.03143310546875
1638754178636671500,8.96967138671875,-0.9882659912109375,-0.06805419921875,-0.029541015625
1638754178646692600,8.979692626953126,-0.9876251220703125,-0.0686798095703125,-0.02752685546875
1638754178656713500,8.98971337890625,-0.9873046875,-0.0681915283203125,-0.0258026123046875
1638754178666733600,8.999733642578125,-0.9879913330078125,-0.068145751953125,-0.02423095703125
1638754178676754400,9.00975439453125,-0.98687744140625,-0.0679931640625,-0.023162841796875
1638754178686774500,9.0197744140625,-0.9877166748046875,-0.066986083984375,-0.022247314453125
1638754178696795400,9.02979541015625,-0.987945556640625,-0.0662689208984375,-0.0211944580078125
1638754178706815500,9.0398154296875,-0.988067626953125,-0.0667572021484375,-0.021148681640625
1638754178716836400,9.04983642578125,-0.9881591796875,-0.0660552978515625,-0.0204010009765625
1638754178726857500,9.059857421875,-0.987884521484375,-0.065948486328125,-0.0205535888671875
1638754178736877600,9.069877685546874,-0.988555908203125,-0.066375732421875,-0.0216827392578125
1638754178746898700,9.079898681640625,-0.9884796142578125,-0.06585693359375,-0.020782470703125
1638754178756918500,9.08991845703125,-0.9879302978515625,-0.0660858154296875,-0.02178955078125
1638754178766939600,9.099939697265626,-0.9873046875,-0.0661468505859375,-0.0220489501953125
1638754178776959500,9.10995947265625,-0.98809814453125,-0.0650634765625,-0.0212249755859375
1638754178786980600,9.119980712890625,-0.98858642578125,-0.065643310546875,-0.0223388671875
1638754178797001700,9.130001708984375,-0.988494873046875,-0.0650787353515625,-0.0218048095703125
1638754178807021600,9.140021484375,-0.9884033203125,-0.06573486328125,-0.021697998046875
1638754178817042700,9.150042724609374,-0.987091064453125,-0.0646820068359375,-0.022064208984375
1638754178827062500,9.1600625,-0.9883270263671875,-0.063720703125,-0.023284912109375
1638754178837083600,9.170083740234375,-0.988067626953125,-0.0646820068359375,-0.024261474609375
1638754178847103500,9.180103515625,-0.987579345703125,-0.065216064453125,-0.025115966796875
1638754178857124600,9.19012451171875,-0.987701416015625,-0.06524658203125,-0.026123046875
1638754178867144700,9.200144775390624,-0.98760986328125,-0.0655364990234375,-0.0260772705078125
1638754178877165600,9.21016552734375,-0.98748779296875,-0.0658416748046875,-0.0266571044921875
1638754178887186400,9.2201865234375,-0.9871673583984375,-0.065582275390625,-0.026397705078125
1638754178897206500,9.23020654296875,-0.987457275390625,-0.0658416748046875,-0.028076171875
1638754178907227400,9.240227294921874,-0.9881439208984375,-0.0663909912109375,-0.028106689453125
1638754178917247500,9.25024755859375,-0.9882354736328125,-0.066131591796875,-0.02764892578125
1638754178927268600,9.2602685546875,-0.9872894287109375,-0.0662841796875,-0.0275726318359375
1638754178937288400,9.270288330078126,-0.98773193359375,-0.0657958984375,-0.0281829833984375
1638754178947309600,9.2803095703125,-0.9879150390625,-0.065643310546875,-0.027984619140625
1638754178957330400,9.290330322265625,-0.9883270263671875,-0.066436767578125,-0.0284576416015625
1638754178967350500,9.3003505859375,-0.988861083984375,-0.06640625,-0.02813720703125
1638754178977371400,9.310371337890626,-0.9880828857421875,-0.066864013671875,-0.02667236328125
1638754178987391500,9.3203916015625,-0.987823486328125,-0.0669403076171875,-0.0264739990234375
1638754178997412400,9.330412353515625,-0.9868316650390625,-0.0667266845703125,-0.026519775390625
1638754179007432400,9.340432373046875,-0.9869384765625,-0.06744384765625,-0.02587890625
1638754179017453300,9.350453369140626,-0.9883270263671875,-0.067413330078125,-0.025299072265625
1638754179027473400,9.360473388671876,-0.9883575439453125,-0.0675201416015625,-0.0242156982421875
1638754179037494500,9.37049462890625,-0.98809814453125,-0.0672607421875,-0.0236053466796875
1638754179047515600,9.380515625,-0.9877166748046875,-0.067138671875,-0.02435302734375
1638754179057536000,9.390535888671875,-0.9880523681640625,-0.0667572021484375,-0.023193359375
1638754179067557000,9.40055712890625,-0.9881134033203125,-0.066253662109375,-0.023040771484375
1638754179077577200,9.4105771484375,-0.98779296875,-0.0662384033203125,-0.0234222412109375
1638754179087598000,9.42059814453125,-0.98760986328125,-0.0658721923828125,-0.0235137939453125
1638754179097618200,9.4306181640625,-0.9869537353515625,-0.0657196044921875,-0.0238800048828125
1638754179107639000,9.44063916015625,-0.98663330078125,-0.0659637451171875,-0.023529052734375
1638754179117660200,9.45066015625,-0.9875030517578125,-0.0650177001953125,-0.02362060546875
1638754179127680000,9.460679931640625,-0.987640380859375,-0.065460205078125,-0.0241851806640625
1638754179137701400,9.470701416015626,-0.9878692626953125,-0.0658721923828125,-0.0243377685546875
1638754179147721000,9.480720947265626,-0.9883270263671875,-0.0654296875,-0.0236663818359375
1638754179157742300,9.490742431640625,-0.9868621826171875,-0.0652923583984375,-0.02398681640625
1638754179167762200,9.50076220703125,-0.9872894287109375,-0.0653228759765625,-0.0242919921875
1638754179177783300,9.510783203125,-0.9880218505859375,-0.0654754638671875,-0.0234527587890625
1638754179187804200,9.52080419921875,-0.988037109375,-0.0664520263671875,-0.0243377685546875
1638754179197824300,9.53082421875,-0.988311767578125,-0.0655975341796875,-0.024658203125
1638754179207845000,9.54084521484375,-0.9865570068359375,-0.0660552978515625,-0.0247039794921875
1638754179217865200,9.550865234375,-0.9876251220703125,-0.0661163330078125,-0.0253448486328125
1638754179227886000,9.560885986328126,-0.988128662109375,-0.0661773681640625,-0.0245819091796875
1638754179237906200,9.57090625,-0.988037109375,-0.0654754638671875,-0.0254974365234375
1638754179247927300,9.58092724609375,-0.9880218505859375,-0.066009521484375,-0.0261688232421875
1638754179257947100,9.590947021484375,-0.988250732421875,-0.0655517578125,-0.025543212890625
1638754179267968300,9.60096826171875,-0.9881439208984375,-0.065673828125,-0.02593994140625
1638754179277989000,9.610989013671874,-0.9888763427734375,-0.0650634765625,-0.0251922607421875
1638754179288009200,9.62100927734375,-0.9893798828125,-0.0659637451171875,-0.0245208740234375
1638754179298030000,9.631030029296875,-0.9880218505859375,-0.0660400390625,-0.0252838134765625
1638754179308050200,9.64105029296875,-0.9881744384765625,-0.06640625,-0.025482177734375
1638754179318071000,9.651071044921874,-0.9881439208984375,-0.0664215087890625,-0.024932861328125
1638754179328091100,9.661091064453124,-0.987548828125,-0.0666351318359375,-0.0253753662109375
1638754179338112000,9.671112060546875,-0.9875030517578125,-0.066497802734375,-0.02471923828125
1638754179348133000,9.681133056640626,-0.9867401123046875,-0.066314697265625,-0.02386474609375
1638754179358153200,9.6911533203125,-0.987579345703125,-0.0669097900390625,-0.0243682861328125
1638754179368174000,9.701174072265625,-0.9879302978515625,-0.0662689208984375,-0.0247955322265625
1638754179378194200,9.711194091796875,-0.9888763427734375,-0.0662689208984375,-0.026123046875
1638754179388215000,9.721215087890625,-0.9888458251953125,-0.06646728515625,-0.0255126953125
1638754179398235100,9.731235107421876,-0.9884490966796875,-0.0662841796875,-0.0261688232421875
1638754179408256000,9.741256103515624,-0.9884033203125,-0.0656585693359375,-0.0263824462890625
1638754179418276000,9.751276123046875,-0.988494873046875,-0.065582275390625,-0.02618408203125
1638754179428297000,9.761296875,-0.9875946044921875,-0.0656890869140625,-0.0261688232421875
1638754179438318300,9.771318359375,-0.9874725341796875,-0.065948486328125,-0.0253448486328125
1638754179448338200,9.781338134765624,-0.9880828857421875,-0.066131591796875,-0.026519775390625
1638754179458359300,9.791359375,-0.9886627197265625,-0.0650482177734375,-0.024658203125
1638754179468379100,9.801379150390625,-0.987762451171875,-0.0658721923828125,-0.0247650146484375
1638754179478400300,9.811400146484376,-0.98809814453125,-0.065765380859375,-0.02447509765625
1638754179488420400,9.82142041015625,-0.9883575439453125,-0.0660552978515625,-0.0242919921875
1638754179498441200,9.831441162109375,-0.9871826171875,-0.065826416015625,-0.0229339599609375
1638754179508462000,9.841462158203125,-0.9862060546875,-0.066436767578125,-0.021881103515625
1638754179518482200,9.851482177734376,-0.9865264892578125,-0.0669097900390625,-0.021575927734375
1638754179528503300,9.86150341796875,-0.986328125,-0.0673065185546875,-0.0205841064453125
1638754179538523100,9.871523193359375,-0.98779296875,-0.067626953125,-0.0184783935546875
1638754179548544300,9.881544189453125,-0.98681640625,-0.068206787109375,-0.0160369873046875
1638754179558564000,9.891564208984375,-0.98455810546875,-0.0703887939453125,-0.014984130859375
1638754179568585200,9.901585205078124,-0.9824371337890625,-0.0721588134765625,-0.015594482421875
1638754179578605000,9.91160498046875,-0.981903076171875,-0.0709075927734375,-0.0216217041015625
1638754179588626200,9.921626220703125,-0.9836883544921875,-0.06707763671875,-0.0270843505859375
1638754179598647000,9.93164697265625,-0.9844970703125,-0.062744140625,-0.02972412109375
1638754179608667100,9.941667236328126,-0.9862823486328125,-0.05560302734375,-0.02960205078125
1638754179618688000,9.95168798828125,-0.9862518310546875,-0.049041748046875,-0.027130126953125
1638754179628708000,9.9617080078125,-0.9863739013671875,-0.04742431640625,-0.0238037109375
1638754179638729200,9.971729248046875,-0.9879608154296875,-0.050201416015625,-0.0200653076171875
1638754179648749000,9.9817490234375,-0.9890289306640625,-0.0569610595703125,-0.0157928466796875
1638754179658770200,9.991770263671874,-0.989105224609375,-0.0635528564453125,-0.0108795166015625
1638754179668791000,10.001791015625,-0.9884796142578125,-0.0718841552734375,-0.0077667236328125
1638754179678811100,10.01181103515625,-0.9850311279296875,-0.073577880859375,-0.005096435546875
1638754179688832000,10.02183203125,-0.9842681884765625,-0.0729522705078125,-0.0048370361328125
1638754179698852000,10.03185205078125,-0.985809326171875,-0.0710296630859375,-0.0106964111328125
1638754179708873200,10.041873291015625,-0.98577880859375,-0.0662689208984375,-0.0183563232421875
1638754179718893000,10.05189306640625,-0.9859161376953125,-0.06231689453125,-0.030670166015625
1638754179728914200,10.0619140625,-0.98736572265625,-0.061737060546875,-0.045501708984375
1638754179738935300,10.071935302734374,-0.992401123046875,-0.065948486328125,-0.0579376220703125
1638754179748955100,10.081955078125,-0.9963226318359375,-0.0714263916015625,-0.0609130859375
1638754179758976300,10.091976318359375,-0.990509033203125,-0.0733184814453125,-0.0602569580078125
1638754179768996400,10.101996337890625,-0.9785614013671875,-0.0720062255859375,-0.051422119140625
1638754179779017200,10.112017333984374,-0.9745635986328125,-0.067779541015625,-0.0418243408203125
1638754179789037300,10.122037353515625,-0.9726104736328125,-0.0578460693359375,-0.031036376953125
1638754179799058200,10.13205810546875,-0.96978759765625,-0.053192138671875,-0.023101806640625
1638754179809078300,10.142078369140625,-0.9669036865234375,-0.0605316162109375,-0.0184326171875
1638754179819099100,10.15209912109375,-0.9649200439453125,-0.0660400390625,-0.0101165771484375
1638754179829120300,10.162120361328125,-0.967376708984375,-0.077789306640625,-0.0185089111328125
1638754179839140000,10.17214013671875,-0.9845428466796875,-0.0920562744140625,-0.037261962890625
1638754179849161200,10.1821611328125,-0.9994659423828125,-0.090576171875,-0.0488739013671875
1638754179859181000,10.19218115234375,-1.0111541748046875,-0.0869140625,-0.0605926513671875
1638754179869202200,10.2022021484375,-1.0168304443359375,-0.0880279541015625,-0.0648651123046875
1638754179879222300,10.21222216796875,-1.0139617919921875,-0.09619140625,-0.0661163330078125
1638754179889243100,10.2222431640625,-1.0016326904296875,-0.105712890625,-0.0646209716796875
1638754179899264000,10.232263916015626,-0.9907684326171875,-0.1063079833984375,-0.0680694580078125
1638754179909284000,10.2422841796875,-0.98614501953125,-0.1034088134765625,-0.07696533203125
1638754179919305000,10.252304931640625,-0.988800048828125,-0.1040496826171875,-0.078369140625
1638754179929325000,10.262324951171875,-0.992431640625,-0.1002960205078125,-0.0799407958984375
1638754179939346200,10.27234619140625,-0.9963531494140625,-0.0894622802734375,-0.0762786865234375
1638754179949366000,10.282365966796876,-0.9973907470703125,-0.0825042724609375,-0.0657958984375
1638754179959387100,10.29238720703125,-0.9970550537109375,-0.07879638671875,-0.0540924072265625
1638754179969408300,10.302408203125,-0.9942626953125,-0.0820770263671875,-0.0488433837890625
1638754179979428000,10.312427978515625,-0.9899444580078125,-0.079345703125,-0.0447540283203125
1638754179989449200,10.32244921875,-0.9881591796875,-0.0813140869140625,-0.0416107177734375
1638754179999469300,10.33246923828125,-0.988067626953125,-0.089874267578125,-0.0312652587890625
1638754180009490200,10.342490234375,-0.9810028076171875,-0.089935302734375,-0.0243682861328125
1638754180019510300,10.35251025390625,-0.972076416015625,-0.09088134765625,-0.0293731689453125
1638754180029531100,10.36253125,-0.9696502685546875,-0.092987060546875,-0.036712646484375
1638754180039551200,10.37255126953125,-0.977447509765625,-0.092864990234375,-0.03759765625
1638754180049572400,10.382572265625,-0.9902496337890625,-0.0942840576171875,-0.0370025634765625
1638754180059593000,10.392593017578125,-0.999725341796875,-0.0921478271484375,-0.0288238525390625
1638754180069613000,10.402613037109376,-0.9972076416015625,-0.0835723876953125,-0.028839111328125
1638754180079634000,10.412634033203124,-0.9875946044921875,-0.0796661376953125,-0.03887939453125
1638754180089654000,10.422654052734375,-0.9795684814453125,-0.0807037353515625,-0.044677734375
1638754180099675000,10.4326748046875,-0.9798126220703125,-0.0843048095703125,-0.04510498046875
1638754180109695000,10.442695068359376,-0.9842681884765625,-0.083587646484375,-0.0426483154296875
1638754180119715800,10.4527158203125,-0.9886016845703125,-0.0784759521484375,-0.045135498046875
1638754180129737000,10.462737060546875,-0.9917144775390625,-0.076019287109375,-0.0481719970703125
1638754180139756800,10.4727568359375,-0.9941864013671875,-0.0826416015625,-0.044647216796875
1638754180149778000,10.48277783203125,-0.9937744140625,-0.0890655517578125,-0.032318115234375
1638754180159798000,10.492798095703124,-0.99072265625,-0.086883544921875,-0.0212554931640625
1638754180169819000,10.50281884765625,-0.98388671875,-0.0818328857421875,-0.017730712890625
1638754180179839000,10.5128388671875,-0.976409912109375,-0.0836029052734375,-0.022308349609375
1638754180189860000,10.522860107421875,-0.96826171875,-0.0879058837890625,-0.02337646484375
1638754180199880000,10.5328798828125,-0.969635009765625,-0.089874267578125,-0.0245361328125
1638754180209901000,10.542901123046875,-0.97796630859375,-0.0795745849609375,-0.0292205810546875
1638754180219922200,10.552922119140625,-0.9843292236328125,-0.066009521484375,-0.03271484375
1638754180229942000,10.56294189453125,-0.98211669921875,-0.0498046875,-0.0374603271484375
1638754180239963100,10.572963134765626,-0.9726104736328125,-0.0306396484375,-0.0427093505859375
1638754180249983000,10.58298291015625,-0.9734649658203125,-0.022064208984375,-0.034393310546875
1638754180260004000,10.593004150390625,-0.991363525390625,-0.0424652099609375,-0.0345916748046875
1638754180270024000,10.60302392578125,-1.01513671875,-0.074005126953125,-0.040985107421875
1638754180280045000,10.613045166015626,-1.03216552734375,-0.1177825927734375,-0.0278167724609375
1638754180290066000,10.62306591796875,-1.0376434326171875,-0.18304443359375,-0.0215606689453125
1638754180300086000,10.6330859375,-1.028411865234375,-0.237030029296875,-0.027435302734375
1638754180310107000,10.64310693359375,-0.9832611083984375,-0.2251434326171875,-0.0197906494140625
1638754180320127000,10.653126953125,-0.91094970703125,-0.1567535400390625,0.0143585205078125
1638754180330148000,10.663148193359374,-0.8624420166015625,-0.0850677490234375,0.0211334228515625
1638754180340168000,10.67316796875,-0.87664794921875,-0.031890869140625,-0.00634765625
1638754180350189000,10.68318896484375,-0.9450531005859375,-0.0040435791015625,-0.0352630615234375
1638754180360210000,10.6932099609375,-1.009490966796875,0.0063018798828125,-0.04827880859375
1638754180370230000,10.70322998046875,-1.0210723876953125,0.003021240234375,-0.0471649169921875
1638754180380251000,10.7132509765625,-0.95574951171875,-0.0338134765625,-0.0226287841796875
1638754180390271000,10.72327099609375,-0.8793487548828125,-0.04931640625,0.0092010498046875
1638754180400291800,10.733291748046875,-0.8769683837890625,-0.0696563720703125,0.0303955078125
1638754180410312000,10.74331201171875,-0.9455718994140625,-0.1201934814453125,0.03607177734375
1638754180420332800,10.753332763671875,-1.062225341796875,-0.1668548583984375,0.0083770751953125
1638754180430353000,10.763352783203125,-1.200408935546875,-0.1659698486328125,-0.110260009765625
1638754180440374000,10.7733740234375,-1.234466552734375,-0.0440216064453125,-0.2665252685546875
1638754180450395100,10.78339501953125,-1.1523590087890625,0.0637664794921875,-0.3228912353515625
1638754180460415000,10.7934150390625,-1.014068603515625,0.0633087158203125,-0.22369384765625
1638754180470436000,10.80343603515625,-0.8928680419921875,-0.003173828125,-0.0469970703125
1638754180480456000,10.8134560546875,-0.850555419921875,-0.053924560546875,0.045989990234375
1638754180490477000,10.82347705078125,-0.8798828125,-0.0727996826171875,0.033355712890625
1638754180500497200,10.8334970703125,-0.960418701171875,-0.074188232421875,0.004547119140625
1638754180510518000,10.84351806640625,-1.04010009765625,-0.0691680908203125,-0.02587890625
1638754180520539100,10.8535390625,-1.08233642578125,-0.0472564697265625,-0.063995361328125
1638754180530559000,10.86355908203125,-1.0778045654296875,-0.0301055908203125,-0.0670318603515625
1638754180540580000,10.873580078125,-1.03143310546875,-0.04852294921875,-0.0328826904296875
1638754180550600000,10.883599853515625,-0.9592437744140625,-0.0813140869140625,-0.0068206787109375
1638754180560621000,10.89362109375,-0.8978729248046875,-0.0949554443359375,-0.00390625
1638754180570641200,10.90364111328125,-0.880889892578125,-0.0925140380859375,-0.01690673828125
1638754180580662000,10.913662109375,-0.92138671875,-0.0892486572265625,-0.0342864990234375
1638754180590682000,10.92368212890625,-0.9883880615234375,-0.07977294921875,-0.0451507568359375
1638754180600703000,10.933702880859375,-1.035003662109375,-0.0657501220703125,-0.0523681640625
1638754180610724000,10.94372412109375,-1.045074462890625,-0.0599822998046875,-0.0530853271484375
1638754180620744000,10.953743896484376,-1.023681640625,-0.0610504150390625,-0.0518951416015625
1638754180630765000,10.96376513671875,-0.9955291748046875,-0.0691070556640625,-0.0528411865234375
1638754180640785000,10.973784912109375,-0.97943115234375,-0.0768280029296875,-0.0537261962890625
1638754180650806000,10.983805908203125,-0.975830078125,-0.0846710205078125,-0.056365966796875
1638754180660825900,10.993825927734376,-0.97998046875,-0.092620849609375,-0.0611724853515625
1638754180670847000,11.003846923828124,-0.985443115234375,-0.0997772216796875,-0.0692291259765625
1638754180680867800,11.013867919921875,-0.9752197265625,-0.106475830078125,-0.0732574462890625
1638754180690888000,11.023887939453125,-0.959320068359375,-0.1065673828125,-0.0670166015625
1638754180700908800,11.03390869140625,-0.9602813720703125,-0.104705810546875,-0.0668182373046875
1638754180710929000,11.043928955078124,-0.9867706298828125,-0.1044921875,-0.0554351806640625
1638754180720950000,11.053949951171875,-1.0200653076171875,-0.1029510498046875,-0.0265655517578125
1638754180730969900,11.063969970703125,-1.03216552734375,-0.0874481201171875,0.0010986328125
1638754180740991000,11.073990966796876,-1.0030364990234375,-0.0591888427734375,0.0208587646484375
1638754180751012000,11.08401220703125,-0.9662322998046875,-0.0514068603515625,0.02423095703125
1638754180761032200,11.0940322265625,-0.9494781494140625,-0.06024169921875,0.0223236083984375
1638754180771053000,11.104052978515625,-0.95684814453125,-0.0731048583984375,0.010498046875
1638754180781073200,11.1140732421875,-0.97259521484375,-0.0859375,-0.0125274658203125
1638754180791094000,11.124093994140624,-0.981597900390625,-0.0919189453125,-0.029144287109375
1638754180801114000,11.134114013671875,-0.9805755615234375,-0.0891876220703125,-0.0430145263671875
1638754180811135000,11.144135009765625,-0.9731903076171875,-0.0888824462890625,-0.0522308349609375
1638754180821155000,11.154155029296875,-0.9647216796875,-0.086578369140625,-0.0473785400390625
1638754180831176000,11.164176025390624,-0.9643402099609375,-0.078521728515625,-0.0440521240234375
1638754180841197000,11.174197021484375,-0.9740753173828125,-0.0782318115234375,-0.041473388671875
1638754180851217200,11.184217041015625,-0.9890899658203125,-0.074127197265625,-0.0351715087890625
1638754180861238000,11.194238037109375,-1.00439453125,-0.067230224609375,-0.0359344482421875
1638754180871258000,11.204258056640626,-1.017364501953125,-0.0568695068359375,-0.04150390625
1638754180881279000,11.214279052734375,-1.0230712890625,-0.0477294921875,-0.0511932373046875
1638754180891299000,11.224299072265625,-1.0223388671875,-0.04840087890625,-0.0580902099609375
1638754180901320000,11.23431982421875,-1.0162811279296875,-0.059478759765625,-0.0596466064453125
1638754180911341000,11.244341064453126,-1.0021514892578125,-0.0681915283203125,-0.061431884765625
1638754180921361000,11.25436083984375,-0.9873504638671875,-0.067291259765625,-0.067047119140625
1638754180931382000,11.264382080078125,-0.9803466796875,-0.06488037109375,-0.069305419921875
1638754180941401900,11.27440185546875,-0.979583740234375,-0.0619964599609375,-0.0670623779296875
1638754180951423000,11.284423095703126,-0.981109619140625,-0.0607452392578125,-0.059356689453125
1638754180961443000,11.294443115234374,-0.9816741943359375,-0.0604095458984375,-0.049713134765625
1638754180971464000,11.3044638671875,-0.982269287109375,-0.06011962890625,-0.03662109375
1638754180981484800,11.31448486328125,-0.98236083984375,-0.0603485107421875,-0.023834228515625
1638754180991505000,11.3245048828125,-0.981353759765625,-0.060272216796875,-0.017303466796875
1638754181001525800,11.33452587890625,-0.98065185546875,-0.0613555908203125,-0.013427734375
1638754181011545900,11.3445458984375,-0.9827728271484375,-0.0622100830078125,-0.0145721435546875
1638754181021567200,11.354567138671875,-0.985504150390625,-0.0612945556640625,-0.0200958251953125
1638754181031586800,11.3645869140625,-0.9871978759765625,-0.060943603515625,-0.0255126953125
1638754181041608200,11.374608154296874,-0.98712158203125,-0.063262939453125,-0.030364990234375
1638754181051628000,11.3846279296875,-0.9840850830078125,-0.0655975341796875,-0.0338592529296875
1638754181061649200,11.394649169921875,-0.9809722900390625,-0.0689239501953125,-0.0351409912109375
1638754181071670000,11.404669921875,-0.9800262451171875,-0.072174072265625,-0.0372467041015625
1638754181081690000,11.414690185546876,-0.9819488525390625,-0.073638916015625,-0.0365753173828125
1638754181091711000,11.4247109375,-0.98516845703125,-0.0748291015625,-0.0356903076171875
1638754181101731000,11.43473095703125,-0.987152099609375,-0.074737548828125,-0.0348663330078125
1638754181111752000,11.444751953125,-0.9857177734375,-0.0736846923828125,-0.0340576171875
1638754181121772000,11.45477197265625,-0.9878692626953125,-0.0715484619140625,-0.0344390869140625
1638754181131793000,11.46479296875,-0.9879608154296875,-0.070343017578125,-0.03460693359375
1638754181141814300,11.474814208984375,-0.988525390625,-0.0692291259765625,-0.0367279052734375
1638754181151834000,11.484834228515625,-0.9888153076171875,-0.0685577392578125,-0.0393829345703125
1638754181161855200,11.494855224609376,-0.987579345703125,-0.06756591796875,-0.0400543212890625
1638754181171875000,11.504875,-0.989105224609375,-0.068572998046875,-0.04229736328125
1638754181181896200,11.514896240234375,-0.9897308349609375,-0.0688629150390625,-0.0434112548828125
1638754181191916300,11.524916259765625,-0.990936279296875,-0.06878662109375,-0.043182373046875
1638754181201937200,11.534937255859376,-0.99041748046875,-0.0695648193359375,-0.042083740234375
1638754181211958300,11.544958251953124,-0.9896392822265625,-0.0700225830078125,-0.0408172607421875
1638754181221978000,11.55497802734375,-0.9887847900390625,-0.071380615234375,-0.038330078125
1638754181231999200,11.564999267578125,-0.9893341064453125,-0.0717926025390625,-0.0358734130859375
1638754181242019000,11.57501904296875,-0.9878997802734375,-0.0714874267578125,-0.034210205078125
1638754181252040200,11.585040283203124,-0.98760986328125,-0.0709381103515625,-0.0326690673828125
1638754181262060300,11.595060302734375,-0.987274169921875,-0.0704498291015625,-0.0323028564453125
1638754181272081200,11.6050810546875,-0.9858245849609375,-0.07012939453125,-0.0311279296875
1638754181282101200,11.615101318359375,-0.98468017578125,-0.07049560546875,-0.03125
1638754181292122000,11.6251220703125,-0.985443115234375,-0.069427490234375,-0.031036376953125
1638754181302143000,11.63514306640625,-0.9871978759765625,-0.06793212890625,-0.0327301025390625
1638754181312163000,11.6451630859375,-0.98681640625,-0.0679779052734375,-0.033203125
1638754181322184200,11.65518408203125,-0.9867401123046875,-0.067535400390625,-0.0336761474609375
1638754181332204000,11.6652041015625,-0.984710693359375,-0.0667724609375,-0.0348052978515625
1638754181342225200,11.67522509765625,-0.9848175048828125,-0.0663604736328125,-0.035003662109375
1638754181352245000,11.685244873046875,-0.985870361328125,-0.066162109375,-0.0359649658203125
1638754181362266000,11.69526611328125,-0.988800048828125,-0.0657196044921875,-0.036346435546875
1638754181372287000,11.705286865234376,-0.990234375,-0.0659637451171875,-0.0376434326171875
1638754181382307000,11.71530712890625,-0.98956298828125,-0.06494140625,-0.0384521484375
1638754181392328000,11.725327880859375,-0.9881744384765625,-0.06524658203125,-0.0396881103515625
1638754181402348000,11.73534814453125,-0.9881591796875,-0.06500244140625,-0.0393524169921875
1638754181412369000,11.745368896484376,-0.987640380859375,-0.0656280517578125,-0.0388031005859375
1638754181422389000,11.755388916015624,-0.9886932373046875,-0.0667877197265625,-0.03924560546875
1638754181432410000,11.76541015625,-0.9893035888671875,-0.0672149658203125,-0.0392608642578125
1638754181442431200,11.77543115234375,-0.9886474609375,-0.0667724609375,-0.037841796875
1638754181452451300,11.785451416015626,-0.9863739013671875,-0.0675201416015625,-0.0380706787109375
1638754181462472200,11.79547216796875,-0.987823486328125,-0.06793212890625,-0.03759765625
1638754181472492300,11.8054921875,-0.9893951416015625,-0.068084716796875,-0.0367889404296875
1638754181482513200,11.81551318359375,-0.9878387451171875,-0.06756591796875,-0.036834716796875
1638754181492533200,11.825533203125,-0.9871826171875,-0.0674896240234375,-0.037261962890625
1638754181502554000,11.83555419921875,-0.986541748046875,-0.0678558349609375,-0.037078857421875
1638754181512574200,11.84557421875,-0.9865264892578125,-0.068939208984375,-0.037353515625
1638754181522595000,11.855594970703125,-0.9870147705078125,-0.0688934326171875,-0.035736083984375
1638754181532616200,11.8656162109375,-0.9880523681640625,-0.0692138671875,-0.0363311767578125
1638754181542636000,11.875635986328126,-0.9874267578125,-0.06976318359375,-0.03643798828125
1638754181552657200,11.8856572265625,-0.9868011474609375,-0.0696868896484375,-0.0369415283203125
1638754181562677200,11.89567724609375,-0.98614501953125,-0.0702972412109375,-0.036468505859375
1638754181572698000,11.905697998046875,-0.9860382080078125,-0.070220947265625,-0.035614013671875
1638754181582718200,11.91571826171875,-0.987152099609375,-0.06939697265625,-0.0360260009765625
1638754181592739000,11.925739013671874,-0.9871368408203125,-0.068817138671875,-0.036285400390625
1638754181602760200,11.93576025390625,-0.9879913330078125,-0.0687408447265625,-0.0354461669921875
1638754181612780000,11.945780029296875,-0.9872589111328125,-0.069061279296875,-0.0357818603515625
1638754181622801200,11.95580126953125,-0.987274169921875,-0.068450927734375,-0.03631591796875
1638754181632821000,11.965821044921874,-0.986846923828125,-0.0690155029296875,-0.0362701416015625
1638754181642842000,11.975842041015625,-0.9870452880859375,-0.0687408447265625,-0.0367584228515625
1638754181652862000,11.985862060546875,-0.9868011474609375,-0.067108154296875,-0.036346435546875
1638754181662883000,11.995883056640626,-0.9871368408203125,-0.0675048828125,-0.0364837646484375
1638754181672904000,12.005904052734374,-0.9860687255859375,-0.067474365234375,-0.0370635986328125
1638754181682924000,12.015924072265625,-0.986846923828125,-0.067230224609375,-0.0367889404296875
1638754181692945000,12.02594482421875,-0.98785400390625,-0.06732177734375,-0.0358734130859375
1638754181702965000,12.035965087890625,-0.988037109375,-0.066375732421875,-0.03692626953125
1638754181712986000,12.045986083984374,-0.9874114990234375,-0.0672607421875,-0.036224365234375
1638754181723006000,12.056005859375,-0.9868621826171875,-0.0672149658203125,-0.0365447998046875
1638754181733027300,12.06602734375,-0.9878997802734375,-0.066497802734375,-0.035980224609375
1638754181743047200,12.076047119140625,-0.987274169921875,-0.0670013427734375,-0.03594970703125
1638754181753068300,12.086068359375,-0.9884185791015625,-0.0673370361328125,-0.0362548828125
1638754181763089200,12.096089111328125,-0.987518310546875,-0.0674285888671875,-0.0360565185546875
1638754181773109200,12.106109130859375,-0.9870452880859375,-0.0668792724609375,-0.0362396240234375
1638754181783130000,12.116130126953125,-0.9876251220703125,-0.0662078857421875,-0.0358428955078125
1638754181793150200,12.126150146484376,-0.987274169921875,-0.067047119140625,-0.0357513427734375
1638754181803171000,12.136171142578124,-0.9868011474609375,-0.0673675537109375,-0.0371246337890625
1638754181813191200,12.146191162109375,-0.9874267578125,-0.0670623779296875,-0.0369415283203125
1638754181823212000,12.1562119140625,-0.9881591796875,-0.0674591064453125,-0.036224365234375
1638754181833233200,12.166233154296876,-0.98846435546875,-0.0672149658203125,-0.0358734130859375
1638754181843253200,12.176253173828124,-0.9870452880859375,-0.0674896240234375,-0.036956787109375
1638754181853274000,12.186274169921875,-0.98651123046875,-0.06787109375,-0.0376434326171875
1638754181863294200,12.196294189453125,-0.9862060546875,-0.0674896240234375,-0.0364837646484375
1638754181873315000,12.206315185546876,-0.9874420166015625,-0.067657470703125,-0.036529541015625
1638754181883335200,12.216335205078124,-0.9882354736328125,-0.0684661865234375,-0.03643798828125
1638754181893356000,12.22635595703125,-0.9871673583984375,-0.06793212890625,-0.0362396240234375
1638754181903377200,12.236377197265625,-0.987152099609375,-0.0681304931640625,-0.036712646484375
1638754181913397000,12.24639697265625,-0.9870758056640625,-0.0684814453125,-0.035980224609375
1638754181923418000,12.256418212890624,-0.988494873046875,-0.06793212890625,-0.0348663330078125
1638754181933438000,12.26643798828125,-0.9872283935546875,-0.068145751953125,-0.03631591796875
1638754181943459000,12.276458984375,-0.9875335693359375,-0.0688323974609375,-0.036590576171875
1638754181953479200,12.286479248046875,-0.987518310546875,-0.068756103515625,-0.03717041015625
1638754181963500000,12.2965,-0.9874420166015625,-0.06842041015625,-0.03765869140625
1638754181973520100,12.30652001953125,-0.9864349365234375,-0.0675506591796875,-0.0367584228515625
1638754181983541000,12.316541015625,-0.986785888671875,-0.067657470703125,-0.036895751953125
1638754181993562000,12.32656201171875,-0.986785888671875,-0.068084716796875,-0.037567138671875
1638754182003582000,12.33658203125,-0.9876556396484375,-0.067230224609375,-0.0372314453125
1638754182013603300,12.346603271484375,-0.9866485595703125,-0.0677032470703125,-0.0370941162109375
1638754182023623200,12.356623046875,-0.9865875244140625,-0.0672454833984375,-0.03594970703125
1638754182033644300,12.366644287109375,-0.9880218505859375,-0.067138671875,-0.0367584228515625
1638754182043664100,12.3766640625,-0.9879913330078125,-0.0673980712890625,-0.0364990234375
1638754182053685200,12.386685302734374,-0.9865264892578125,-0.0673828125,-0.0361175537109375
1638754182063705300,12.396705322265625,-0.98699951171875,-0.0674896240234375,-0.0363311767578125
1638754182073725400,12.406725341796875,-0.986236572265625,-0.06768798828125,-0.0356292724609375
1638754182083746600,12.41674658203125,-0.987457275390625,-0.0673370361328125,-0.0359039306640625
1638754182093766400,12.426766357421876,-0.9875335693359375,-0.067108154296875,-0.036895751953125
1638754182103787500,12.43678759765625,-0.98828125,-0.067108154296875,-0.03582763671875
1638754182113807400,12.446807373046875,-0.9871063232421875,-0.066497802734375,-0.035797119140625
1638754182123828500,12.456828369140625,-0.987457275390625,-0.0670166015625,-0.0357666015625
1638754182133849300,12.466849365234374,-0.9882659912109375,-0.06719970703125,-0.03729248046875
1638754182143869400,12.476869384765624,-0.9871978759765625,-0.066864013671875,-0.0374908447265625
1638754182153890600,12.486890625,-0.9872589111328125,-0.0670623779296875,-0.0370941162109375
1638754182163910400,12.496910400390625,-0.987396240234375,-0.067352294921875,-0.0384063720703125
1638754182173931500,12.506931640625,-0.9881134033203125,-0.0680389404296875,-0.038604736328125
1638754182183951400,12.516951416015624,-0.98785400390625,-0.068572998046875,-0.0381622314453125
1638754182193972500,12.526972412109375,-0.9871826171875,-0.0673370361328125,-0.037689208984375
1638754182203993600,12.53699365234375,-0.986907958984375,-0.0677032470703125,-0.03656005859375
1638754182214013700,12.547013671875,-0.987030029296875,-0.067962646484375,-0.03594970703125
1638754182224034600,12.55703466796875,-0.987335205078125,-0.067840576171875,-0.0354156494140625
1638754182234054700,12.5670546875,-0.988494873046875,-0.068328857421875,-0.0354156494140625
1638754182244075500,12.577075439453125,-0.9883575439453125,-0.0679168701171875,-0.0352325439453125
1638754182254095600,12.587095703125,-0.9878692626953125,-0.0681915283203125,-0.03594970703125
1638754182264116500,12.597116455078124,-0.98712158203125,-0.0675201416015625,-0.0366363525390625
1638754182274136600,12.607136474609375,-0.9871368408203125,-0.0680694580078125,-0.0364990234375
1638754182284157400,12.617157470703125,-0.9860992431640625,-0.06793212890625,-0.0370635986328125
1638754182294178600,12.627178466796876,-0.98675537109375,-0.0675201416015625,-0.0356292724609375
1638754182304198400,12.637198486328124,-0.9874420166015625,-0.0676116943359375,-0.0357513427734375
1638754182314219500,12.647219482421875,-0.9872894287109375,-0.06756591796875,-0.0350494384765625
1638754182324239600,12.657239501953125,-0.9878997802734375,-0.0668792724609375,-0.03570556640625
1638754182334260500,12.667260498046875,-0.9870758056640625,-0.0679473876953125,-0.0359344482421875
1638754182344280600,12.677280517578126,-0.9876556396484375,-0.067901611328125,-0.037322998046875
1638754182354301400,12.687301513671875,-0.98785400390625,-0.0677947998046875,-0.0383148193359375
1638754182364322300,12.697322265625,-0.9862060546875,-0.06805419921875,-0.0381317138671875
1638754182374342400,12.70734228515625,-0.9856719970703125,-0.068267822265625,-0.0372161865234375
1638754182384363500,12.717363525390626,-0.98675537109375,-0.06842041015625,-0.0362548828125
1638754182394383400,12.72738330078125,-0.987274169921875,-0.0684814453125,-0.035675048828125
1638754182404404500,12.737404541015625,-0.9871368408203125,-0.0673828125,-0.035736083984375
1638754182414424300,12.74742431640625,-0.9873199462890625,-0.0675811767578125,-0.035797119140625
1638754182424445400,12.757445556640626,-0.9886322021484375,-0.0666046142578125,-0.036163330078125
1638754182434466600,12.767466552734374,-0.9878387451171875,-0.0667572021484375,-0.03668212890625
