time,seconds_elapsed,z,y,x
1638754201734976800,0.014976806640625,-1.0042266845703125,-0.0452423095703125,-0.1065673828125
1638754201744941000,0.024941162109375,-0.99066162109375,-0.0643463134765625,-0.0897369384765625
1638754201754903800,0.03490380859375,-0.9713897705078125,-0.0678863525390625,-0.0916290283203125
1638754201764866800,0.04486669921875,-0.9701690673828125,-0.065948486328125,-0.105072021484375
1638754201774829800,0.054829833984375,-0.9956512451171875,-0.0738677978515625,-0.1181640625
1638754201784792800,0.064792724609375,-1.0227203369140625,-0.0749053955078125,-0.1166534423828125
1638754201794755800,0.074755859375,-1.022369384765625,-0.057464599609375,-0.095977783203125
1638754201804718800,0.08471875,-1.0028839111328125,-0.046783447265625,-0.08544921875
1638754201814681900,0.094681884765625,-0.9873809814453125,-0.06390380859375,-0.0965728759765625
1638754201824644900,0.104644775390625,-0.9806365966796875,-0.0786285400390625,-0.1110687255859375
1638754201834607900,0.11460791015625,-0.9809417724609375,-0.070343017578125,-0.115020751953125
1638754201844572000,0.124572021484375,-0.98785400390625,-0.058929443359375,-0.1040496826171875
1638754201854535000,0.134534912109375,-1.0046539306640625,-0.0644073486328125,-0.0939483642578125
1638754201864498000,0.144497802734375,-1.0132598876953125,-0.0716094970703125,-0.1020660400390625
1638754201874461000,0.1544609375,-1.001007080078125,-0.0666351318359375,-0.1074371337890625
1638754201884424000,0.164423828125,-0.989990234375,-0.0645904541015625,-0.1099090576171875
1638754201894386700,0.17438671875,-0.9923248291015625,-0.072113037109375,-0.1053009033203125
1638754201904349700,0.184349609375,-0.9988861083984375,-0.0728759765625,-0.0988616943359375
1638754201914313000,0.19431298828125,-0.99871826171875,-0.063568115234375,-0.097930908203125
1638754201924276000,0.20427587890625,-0.9956817626953125,-0.0575408935546875,-0.1006927490234375
1638754201934239000,0.214239013671875,-0.997650146484375,-0.066375732421875,-0.1029815673828125
1638754201944203000,0.224203125,-1.0035858154296875,-0.075439453125,-0.102447509765625
1638754201954166000,0.234166015625,-1.0045318603515625,-0.0684661865234375,-0.0983734130859375
1638754201964129000,0.24412890625,-1.000885009765625,-0.05572509765625,-0.0980072021484375
1638754201974091800,0.254091796875,-0.9979400634765625,-0.0577545166015625,-0.099700927734375
1638754201984054800,0.2640546875,-0.9925079345703125,-0.0640106201171875,-0.103485107421875
1638754201994017800,0.274017822265625,-0.986480712890625,-0.06573486328125,-0.1083984375
1638754202003980800,0.283980712890625,-0.9873199462890625,-0.06500244140625,-0.1080322265625
1638754202013943800,0.29394384765625,-0.995697021484375,-0.066131591796875,-0.103912353515625
1638754202023906300,0.30390625,-1.00189208984375,-0.0684051513671875,-0.0988311767578125
1638754202033870300,0.313870361328125,-1.0009307861328125,-0.068115234375,-0.0980987548828125
1638754202043833300,0.323833251953125,-0.9972686767578125,-0.0711212158203125,-0.09808349609375
1638754202053796400,0.33379638671875,-0.9990692138671875,-0.0755157470703125,-0.095550537109375
1638754202063759400,0.34375927734375,-0.9705352783203125,-0.0776824951171875,-0.0917816162109375
1638754202073722400,0.353722412109375,-0.9468841552734375,-0.0726776123046875,-0.1243133544921875
1638754202083685000,0.36368505859375,-1.0091552734375,-0.048065185546875,-0.1089324951171875
1638754202093648100,0.373648193359375,-1.0437164306640625,-0.060028076171875,-0.049591064453125
1638754202103611100,0.383611083984375,-1.0684814453125,-0.0617828369140625,-0.101165771484375
1638754202113574100,0.39357421875,-1.0524749755859375,-0.0612335205078125,-0.0938873291015625
1638754202123538200,0.4035380859375,-0.9827423095703125,-0.0603179931640625,-0.0838775634765625
1638754202133501200,0.413501220703125,-0.927642822265625,-0.0672149658203125,-0.1371307373046875
1638754202143464400,0.42346435546875,-0.922027587890625,-0.088623046875,-0.1234588623046875
1638754202153427500,0.433427490234375,-0.958099365234375,-0.0960693359375,-0.087677001953125
1638754202163390200,0.44339013671875,-1.0114288330078125,-0.0819091796875,-0.0988311767578125
1638754202173353200,0.453353271484375,-1.0551605224609375,-0.0605926513671875,-0.09735107421875
1638754202183316200,0.463316162109375,-1.060302734375,-0.0468902587890625,-0.0869293212890625
1638754202193279200,0.473279296875,-1.0222625732421875,-0.0482025146484375,-0.0983734130859375
1638754202203242200,0.4832421875,-0.9772491455078125,-0.0504608154296875,-0.102630615234375
1638754202213205200,0.493205322265625,-0.956329345703125,-0.0713653564453125,-0.1220245361328125
1638754202223169300,0.503169189453125,-0.95050048828125,-0.08734130859375,-0.11529541015625
1638754202233132300,0.51313232421875,-0.9708099365234375,-0.079315185546875,-0.0914154052734375
1638754202243095000,0.523094970703125,-1.0131378173828125,-0.063568115234375,-0.099945068359375
1638754202253058300,0.533058349609375,-1.0384063720703125,-0.0476531982421875,-0.10107421875
1638754202263021300,0.543021240234375,-1.0318145751953125,-0.0521392822265625,-0.1044921875
1638754202272984300,0.552984375,-0.9943389892578125,-0.0673065185546875,-0.10308837890625
1638754202282947300,0.562947265625,-0.96441650390625,-0.077667236328125,-0.1016998291015625
1638754202292910300,0.572910400390625,-0.9629669189453125,-0.07830810546875,-0.10308837890625
1638754202302874400,0.582874267578125,-0.985321044921875,-0.0693511962890625,-0.102783203125
1638754202312837400,0.59283740234375,-1.0126953125,-0.06231689453125,-0.10186767578125
1638754202322800000,0.602800048828125,-1.023895263671875,-0.0618438720703125,-0.0970001220703125
1638754202332763100,0.61276318359375,-1.0138397216796875,-0.0638427734375,-0.0972747802734375
1638754202342726100,0.62272607421875,-0.991912841796875,-0.0651092529296875,-0.102081298828125
1638754202352689200,0.632689208984375,-0.975189208984375,-0.067108154296875,-0.1059417724609375
1638754202362652400,0.64265234375,-0.976898193359375,-0.07061767578125,-0.10626220703125
1638754202372615400,0.652615478515625,-0.9933929443359375,-0.0722503662109375,-0.1027374267578125
1638754202382578400,0.662578369140625,-1.0129547119140625,-0.0675048828125,-0.100128173828125
1638754202392542500,0.67254248046875,-1.01873779296875,-0.059234619140625,-0.0987396240234375
1638754202402505200,0.682505126953125,-1.007781982421875,-0.0601043701171875,-0.10052490234375
1638754202412468200,0.69246826171875,-0.989990234375,-0.0706329345703125,-0.1026611328125
1638754202422431200,0.70243115234375,-0.980194091796875,-0.075653076171875,-0.1043853759765625
1638754202432394200,0.712394287109375,-0.9834442138671875,-0.0709228515625,-0.106353759765625
1638754202442357200,0.722357177734375,-0.998992919921875,-0.0635528564453125,-0.10400390625
1638754202452320300,0.7323203125,-1.009979248046875,-0.0608367919921875,-0.09967041015625
1638754202462283300,0.742283203125,-1.0081787109375,-0.0628814697265625,-0.0995941162109375
1638754202472246300,0.752246337890625,-0.9971466064453125,-0.06671142578125,-0.1016082763671875
1638754202482210000,0.7622099609375,-0.989776611328125,-0.0697174072265625,-0.1027984619140625
1638754202492173300,0.77217333984375,-0.98638916015625,-0.0701141357421875,-0.103271484375
1638754202502136300,0.78213623046875,-0.987579345703125,-0.0713958740234375,-0.1007080078125
1638754202512099300,0.792099365234375,-0.99456787109375,-0.07373046875,-0.1006622314453125
1638754202522062300,0.802062255859375,-1.0032501220703125,-0.0702972412109375,-0.101776123046875
1638754202532025300,0.812025390625,-1.00421142578125,-0.063690185546875,-0.101348876953125
1638754202541988400,0.82198828125,-1.0025787353515625,-0.05584716796875,-0.103179931640625
1638754202551951000,0.831951171875,-0.9964599609375,-0.068695068359375,-0.1087493896484375
1638754202561915100,0.8419150390625,-0.987579345703125,-0.070526123046875,-0.0906524658203125
1638754202571878100,0.851878173828125,-0.987701416015625,-0.07086181640625,-0.097198486328125
1638754202581841200,0.861841064453125,-0.9963836669921875,-0.0658416748046875,-0.1041259765625
1638754202591804200,0.87180419921875,-1.0041046142578125,-0.05841064453125,-0.103057861328125
1638754202601767400,0.881767333984375,-1.0052947998046875,-0.0564422607421875,-0.1036376953125
1638754202611730400,0.89173046875,-0.9994964599609375,-0.05889892578125,-0.1015472412109375
1638754202621693400,0.901693359375,-0.9910430908203125,-0.064697265625,-0.0965728759765625
1638754202631656200,0.91165625,-0.9899749755859375,-0.0755462646484375,-0.1009979248046875
1638754202641620200,0.9216201171875,-0.9946136474609375,-0.079620361328125,-0.1069793701171875
1638754202651583200,0.931583251953125,-1.0009918212890625,-0.0724029541015625,-0.1078643798828125
1638754202661546200,0.941546142578125,-1.00360107421875,-0.063812255859375,-0.1075592041015625
1638754202671509200,0.95150927734375,-1.00201416015625,-0.0597686767578125,-0.1071929931640625
1638754202681472300,0.96147216796875,-0.9981231689453125,-0.061920166015625,-0.1136474609375
1638754202691435300,0.971435302734375,-0.996002197265625,-0.0704193115234375,-0.1055908203125
1638754202701398300,0.981398193359375,-0.997894287109375,-0.073028564453125,-0.099945068359375
1638754202711361300,0.991361328125,-0.9991302490234375,-0.0628814697265625,-0.1036834716796875
1638754202721325000,1.001324951171875,-0.9998321533203125,-0.0587615966796875,-0.101409912109375
1638754202731288300,1.011288330078125,-1.0027618408203125,-0.0627593994140625,-0.101226806640625
1638754202741251300,1.021251220703125,-1.002471923828125,-0.0622100830078125,-0.1042633056640625
1638754202751214300,1.03121435546875,-1.00091552734375,-0.061279296875,-0.1010894775390625
1638754202761177300,1.04117724609375,-0.998321533203125,-0.060333251953125,-0.0982513427734375
1638754202771140400,1.051140380859375,-0.9991912841796875,-0.0548553466796875,-0.098419189453125
1638754202781103400,1.061103271484375,-0.999908447265625,-0.052703857421875,-0.100311279296875
1638754202791066000,1.071066162109375,-0.9964447021484375,-0.048828125,-0.1017303466796875
1638754202801030100,1.081030029296875,-0.994171142578125,-0.0449066162109375,-0.100677490234375
1638754202810993200,1.0909931640625,-0.995880126953125,-0.051483154296875,-0.0987396240234375
1638754202820956200,1.1009560546875,-0.9971771240234375,-0.06170654296875,-0.0981292724609375
1638754202830919200,1.110919189453125,-0.9955902099609375,-0.0643310546875,-0.0999755859375
1638754202840882200,1.120882080078125,-0.9963226318359375,-0.065277099609375,-0.101287841796875
1638754202850845400,1.130845458984375,-0.9956207275390625,-0.0666961669921875,-0.100372314453125
1638754202860808400,1.140808349609375,-0.862091064453125,-0.0799407958984375,-0.0924530029296875
1638754202870771200,1.150771240234375,-0.9517669677734375,-0.07440185546875,-0.15216064453125
1638754202880735200,1.1607353515625,-1.1680908203125,-0.0592041015625,-0.094696044921875
1638754202890698200,1.1706982421875,-1.1248016357421875,-0.0680694580078125,-0.0040283203125
1638754202900661200,1.1806611328125,-1.02130126953125,-0.048858642578125,-0.09686279296875
1638754202910624300,1.190624267578125,-0.959228515625,-0.068084716796875,-0.13018798828125
1638754202920587300,1.200587158203125,-0.94268798828125,-0.0891265869140625,-0.0977783203125
1638754202930550300,1.21055029296875,-0.946136474609375,-0.0825347900390625,-0.107666015625
1638754202940513300,1.22051318359375,-0.971527099609375,-0.071868896484375,-0.10406494140625
1638754202950477300,1.230477294921875,-1.0064544677734375,-0.0662841796875,-0.0811920166015625
1638754202960440000,1.240440185546875,-1.0271453857421875,-0.0594940185546875,-0.09149169921875
1638754202970403000,1.250403076171875,-1.0255584716796875,-0.0549163818359375,-0.1060638427734375
1638754202980366300,1.260366455078125,-1.0068511962890625,-0.057464599609375,-0.104278564453125
1638754202990329300,1.270329345703125,-0.981201171875,-0.061737060546875,-0.10443115234375
1638754203000292400,1.280292236328125,-0.9647064208984375,-0.0609130859375,-0.1040496826171875
1638754203010255400,1.29025537109375,-0.9697418212890625,-0.0608978271484375,-0.0982818603515625
1638754203020219400,1.300219482421875,-0.9910736083984375,-0.0621337890625,-0.1015625
1638754203030182400,1.310182373046875,-1.0118255615234375,-0.05908203125,-0.1014862060546875
1638754203040145400,1.3201455078125,-1.016326904296875,-0.0531005859375,-0.0956268310546875
1638754203050108400,1.3301083984375,-1.0056915283203125,-0.052520751953125,-0.0919036865234375
1638754203060071200,1.3400712890625,-0.9890594482421875,-0.059234619140625,-0.0915985107421875
1638754203070034200,1.3500341796875,-0.9808349609375,-0.0655975341796875,-0.09521484375
1638754203079997200,1.3599970703125,-0.9834442138671875,-0.0693511962890625,-0.10162353515625
1638754203089960400,1.36996044921875,-0.99554443359375,-0.065704345703125,-0.1029205322265625
1638754203099924200,1.37992431640625,-1.006744384765625,-0.0606842041015625,-0.0985565185546875
1638754203109887500,1.389887451171875,-1.01129150390625,-0.0588531494140625,-0.094757080078125
1638754203119850500,1.3998505859375,-1.0047760009765625,-0.0587310791015625,-0.093780517578125
1638754203129813500,1.4098134765625,-0.996429443359375,-0.0620574951171875,-0.095947265625
1638754203139776300,1.4197763671875,-0.9934234619140625,-0.0643768310546875,-0.0976715087890625
1638754203149739300,1.4297392578125,-0.9954833984375,-0.065277099609375,-0.0999298095703125
1638754203159702300,1.439702392578125,-0.9983673095703125,-0.06536865234375,-0.0988616943359375
1638754203169666300,1.449666259765625,-1.0007781982421875,-0.06390380859375,-0.09600830078125
1638754203179629300,1.45962939453125,-1.000335693359375,-0.06207275390625,-0.09808349609375
1638754203189592300,1.46959228515625,-0.9952850341796875,-0.0627288818359375,-0.1013336181640625
1638754203199555300,1.479555419921875,-0.9905853271484375,-0.063262939453125,-0.10223388671875
1638754203209518300,1.489518310546875,-0.9888458251953125,-0.062225341796875,-0.102783203125
1638754203219481300,1.4994814453125,-0.98931884765625,-0.0617828369140625,-0.1016387939453125
1638754203229444400,1.5094443359375,-0.9920501708984375,-0.06317138671875,-0.0972747802734375
1638754203239407400,1.519407470703125,-0.9947662353515625,-0.06396484375,-0.092254638671875
1638754203249371400,1.529371337890625,-0.9959564208984375,-0.0635986328125,-0.09552001953125
1638754203259334400,1.53933447265625,-0.99603271484375,-0.0630950927734375,-0.0951995849609375
1638754203269297400,1.54929736328125,-0.997344970703125,-0.0649261474609375,-0.0917816162109375
1638754203279260400,1.559260498046875,-1.0001983642578125,-0.065032958984375,-0.0967559814453125
1638754203289223400,1.569223388671875,-1.0047607421875,-0.0611724853515625,-0.095855712890625
1638754203299186200,1.579186279296875,-1.0096282958984375,-0.061981201171875,-0.0917816162109375
1638754203309150500,1.589150390625,-1.01739501953125,-0.0653533935546875,-0.090576171875
1638754203319113200,1.59911328125,-1.014007568359375,-0.06170654296875,-0.08831787109375
1638754203329076200,1.609076171875,-0.994903564453125,-0.0587005615234375,-0.0953369140625
1638754203339039200,1.619039306640625,-0.9746551513671875,-0.0589447021484375,-0.1021270751953125
1638754203349002200,1.629002197265625,-0.9738922119140625,-0.0611419677734375,-0.1032562255859375
1638754203358965500,1.638965576171875,-0.9882965087890625,-0.06365966796875,-0.1019134521484375
1638754203368928500,1.648928466796875,-1.006622314453125,-0.0651092529296875,-0.099395751953125
1638754203378892500,1.658892578125,-1.0149993896484375,-0.062255859375,-0.0975341796875
1638754203388855600,1.66885546875,-1.0117950439453125,-0.058258056640625,-0.0976104736328125
1638754203398818300,1.678818359375,-1.002288818359375,-0.0611419677734375,-0.101348876953125
1638754203408781300,1.68878125,-0.9918975830078125,-0.0666656494140625,-0.103668212890625
1638754203418744300,1.698744384765625,-0.9876861572265625,-0.068206787109375,-0.1004791259765625
1638754203428707300,1.708707275390625,-0.99371337890625,-0.06439208984375,-0.0991363525390625
1638754203438670300,1.71867041015625,-1.00390625,-0.0583953857421875,-0.0981292724609375
1638754203448634400,1.72863427734375,-1.008636474609375,-0.055938720703125,-0.0979156494140625
1638754203458597400,1.738597412109375,-1.0031890869140625,-0.059600830078125,-0.0968170166015625
1638754203468560400,1.748560302734375,-0.9938201904296875,-0.0660858154296875,-0.0952606201171875
1638754203478523100,1.758523193359375,-0.9884185791015625,-0.067352294921875,-0.0932159423828125
1638754203488486400,1.768486328125,-0.9923553466796875,-0.0653533935546875,-0.093780517578125
1638754203498449400,1.778449462890625,-1.0016021728515625,-0.063140869140625,-0.0947723388671875
1638754203508412400,1.788412353515625,-1.0051116943359375,-0.0612640380859375,-0.0954742431640625
1638754203518376400,1.79837646484375,-0.9983367919921875,-0.062103271484375,-0.095184326171875
1638754203528339500,1.80833935546875,-0.990234375,-0.0640106201171875,-0.0958404541015625
1638754203538302500,1.818302490234375,-0.986297607421875,-0.0654449462890625,-0.0973968505859375
1638754203548265500,1.828265380859375,-0.988739013671875,-0.0638885498046875,-0.0963134765625
1638754203558228200,1.838228271484375,-0.996002197265625,-0.0630035400390625,-0.09735107421875
1638754203568191200,1.848191162109375,-1.0027923583984375,-0.0633087158203125,-0.0955810546875
1638754203578154200,1.858154296875,-1.0061798095703125,-0.062713623046875,-0.095733642578125
1638754203588118300,1.8681181640625,-1.0035400390625,-0.0624847412109375,-0.0966339111328125
1638754203598081300,1.878081298828125,-0.9976654052734375,-0.0647430419921875,-0.096832275390625
1638754203608044300,1.888044189453125,-0.9930419921875,-0.06439208984375,-0.0979461669921875
1638754203618007300,1.89800732421875,-0.993255615234375,-0.06329345703125,-0.0969085693359375
1638754203627970600,1.907970458984375,-0.998504638671875,-0.0631561279296875,-0.0976104736328125
1638754203637933300,1.917933349609375,-1.001922607421875,-0.06097412109375,-0.09820556640625
1638754203647897300,1.9278974609375,-1.0004119873046875,-0.0576934814453125,-0.098297119140625
1638754203657860400,1.9378603515625,-0.9980926513671875,-0.0596771240234375,-0.0985260009765625
1638754203667823400,1.9478232421875,-0.9947509765625,-0.0655364990234375,-0.0991058349609375
1638754203677786400,1.957786376953125,-0.991455078125,-0.0667266845703125,-0.1000823974609375
1638754203687749400,1.967749267578125,-0.994354248046875,-0.0641937255859375,-0.098052978515625
1638754203697712400,1.97771240234375,-1.0024566650390625,-0.061187744140625,-0.098846435546875
1638754203707675400,1.98767529296875,-1.006622314453125,-0.0596771240234375,-0.0985565185546875
1638754203717639400,1.997639404296875,-1.003692626953125,-0.0606231689453125,-0.0966339111328125
1638754203727602200,2.007602294921875,-0.9962615966796875,-0.06195068359375,-0.0983428955078125
1638754203737565200,2.017565185546875,-0.9920654296875,-0.0634307861328125,-0.0994415283203125
1638754203747528200,2.027528076171875,-0.9940643310546875,-0.0634918212890625,-0.1009674072265625
1638754203757491500,2.037491455078125,-0.9978790283203125,-0.062896728515625,-0.0999908447265625
1638754203767454500,2.047454345703125,-0.99969482421875,-0.0623321533203125,-0.098480224609375
1638754203777417500,2.05741748046875,-0.9998016357421875,-0.0603485107421875,-0.0963134765625
1638754203787381500,2.067381591796875,-0.999603271484375,-0.0633087158203125,-0.0958404541015625
1638754203797344500,2.077344482421875,-0.997161865234375,-0.0644378662109375,-0.0975494384765625
1638754203807307300,2.087307373046875,-0.995697021484375,-0.06488037109375,-0.09613037109375
1638754203817270300,2.097270263671875,-0.996185302734375,-0.064605712890625,-0.0969390869140625
1638754203827233300,2.1072333984375,-0.9984893798828125,-0.065155029296875,-0.0977325439453125
1638754203837196300,2.1171962890625,-0.9984588623046875,-0.0651702880859375,-0.0962982177734375
1638754203847159300,2.1271591796875,-0.9967498779296875,-0.0644073486328125,-0.0963897705078125
1638754203857123300,2.137123291015625,-0.996490478515625,-0.06256103515625,-0.099700927734375
1638754203867086300,2.14708642578125,-0.9973602294921875,-0.0609130859375,-0.0970458984375
1638754203877049300,2.15704931640625,-0.99908447265625,-0.06146240234375,-0.0975799560546875
1638754203887012400,2.167012451171875,-0.997711181640625,-0.063079833984375,-0.0973052978515625
1638754203896975400,2.176975341796875,-0.9956817626953125,-0.064453125,-0.0946807861328125
1638754203906938400,2.1869384765625,-0.9931793212890625,-0.0615081787109375,-0.09881591796875
1638754203916902400,2.19690234375,-0.9941558837890625,-0.0619049072265625,-0.0942230224609375
1638754203926865400,2.206865478515625,-0.99859619140625,-0.068389892578125,-0.09613037109375
1638754203936828400,2.216828369140625,-0.9978485107421875,-0.065093994140625,-0.097900390625
1638754203946791400,2.22679150390625,-0.9966888427734375,-0.0584869384765625,-0.09521484375
1638754203956754400,2.23675439453125,-1.00250244140625,-0.064422607421875,-0.09765625
1638754203966717200,2.24671728515625,-1.00067138671875,-0.066925048828125,-0.103179931640625
1638754203976680200,2.25668017578125,-0.9960784912109375,-0.0604400634765625,-0.0960235595703125
1638754203986644200,2.266644287109375,-0.996307373046875,-0.06103515625,-0.0994110107421875
1638754203996607200,2.276607177734375,-0.9994049072265625,-0.0658416748046875,-0.1000823974609375
1638754204006570200,2.2865703125,-1.0007476806640625,-0.0636444091796875,-0.0970001220703125
1638754204016533200,2.296533203125,-0.997711181640625,-0.0610198974609375,-0.09783935546875
1638754204026496500,2.30649658203125,-0.9990692138671875,-0.063201904296875,-0.09625244140625
1638754204036459500,2.31645947265625,-0.99945068359375,-0.06640625,-0.096832275390625
1638754204046423600,2.326423583984375,-0.995330810546875,-0.0628204345703125,-0.0984649658203125
1638754204056386600,2.336386474609375,-0.9921875,-0.063232421875,-0.099334716796875
1638754204066349600,2.346349609375,-0.993865966796875,-0.06451416015625,-0.097564697265625
1638754204076312600,2.3563125,-0.9969940185546875,-0.0641326904296875,-0.0946502685546875
1638754204086275600,2.366275634765625,-1.0009918212890625,-0.0620269775390625,-0.0971832275390625
1638754204096238300,2.37623828125,-1.0006866455078125,-0.0594940185546875,-0.0962677001953125
1638754204106202400,2.386202392578125,-0.9998931884765625,-0.0620269775390625,-0.0973968505859375
1638754204116165400,2.396165283203125,-0.9961395263671875,-0.0659637451171875,-0.0972137451171875
1638754204126128400,2.40612841796875,-0.9921112060546875,-0.065399169921875,-0.0966644287109375
1638754204136091400,2.41609130859375,-0.993133544921875,-0.0633544921875,-0.0988311767578125
1638754204146054400,2.426054443359375,-0.998291015625,-0.062469482421875,-0.0982513427734375
1638754204156017700,2.436017578125,-1.00079345703125,-0.0621490478515625,-0.0984649658203125
1638754204165981400,2.4459814453125,-1.000335693359375,-0.0619354248046875,-0.097686767578125
1638754204175944400,2.4559443359375,-0.9962158203125,-0.06158447265625,-0.0974884033203125
1638754204185907500,2.465907470703125,-0.99432373046875,-0.0626220703125,-0.097900390625
1638754204195870500,2.475870361328125,-0.994842529296875,-0.0633544921875,-0.09716796875
1638754204205833500,2.48583349609375,-0.99560546875,-0.0635223388671875,-0.09698486328125
1638754204215796500,2.49579638671875,-0.9979705810546875,-0.062896728515625,-0.0966949462890625
1638754204225759500,2.505759521484375,-1.001922607421875,-0.0638427734375,-0.09783935546875
1638754204235723500,2.5157236328125,-1.0010223388671875,-0.0653076171875,-0.09942626953125
1638754204245686500,2.5256865234375,-0.9989776611328125,-0.063323974609375,-0.0997314453125
1638754204255649500,2.5356494140625,-0.99652099609375,-0.063018798828125,-0.0986328125
1638754204265612300,2.5456123046875,-0.99664306640625,-0.0645294189453125,-0.0974273681640625
1638754204275575300,2.5555751953125,-0.997955322265625,-0.06494140625,-0.098876953125
1638754204285538600,2.56553857421875,-0.99847412109375,-0.0623321533203125,-0.0983123779296875
1638754204295502300,2.57550244140625,-0.999725341796875,-0.06060791015625,-0.0980682373046875
1638754204305465300,2.58546533203125,-1.001983642578125,-0.06317138671875,-0.0973052978515625
1638754204315428600,2.5954287109375,-1.0000457763671875,-0.0646820068359375,-0.0966644287109375
1638754204325391600,2.6053916015625,-0.9976959228515625,-0.0618133544921875,-0.0977020263671875
1638754204335354600,2.615354736328125,-0.994873046875,-0.06256103515625,-0.099273681640625
1638754204345317400,2.6253173828125,-0.9973297119140625,-0.0636749267578125,-0.0980377197265625
1638754204355281400,2.635281494140625,-0.997344970703125,-0.063446044921875,-0.096099853515625
1638754204365244400,2.645244384765625,-0.9968414306640625,-0.0617523193359375,-0.095550537109375
1638754204375207400,2.65520751953125,-0.9984283447265625,-0.062530517578125,-0.0970306396484375
1638754204385170400,2.66517041015625,-0.998870849609375,-0.0654144287109375,-0.0973968505859375
1638754204395133400,2.675133544921875,-0.9969940185546875,-0.0634765625,-0.0964813232421875
1638754204405096400,2.685096435546875,-0.994659423828125,-0.061309814453125,-0.0966339111328125
1638754204415060500,2.695060546875,-0.9949798583984375,-0.0626373291015625,-0.0969696044921875
1638754204425023500,2.7050234375,-0.996063232421875,-0.062835693359375,-0.0980072021484375
1638754204434986200,2.714986328125,-0.996063232421875,-0.06298828125,-0.0984039306640625
1638754204444949500,2.724949462890625,-0.997955322265625,-0.063812255859375,-0.0970306396484375
1638754204454912500,2.73491259765625,-0.9993743896484375,-0.063232421875,-0.0974884033203125
1638754204464875500,2.74487548828125,-0.9989471435546875,-0.06341552734375,-0.0971832275390625
1638754204474839600,2.754839599609375,-0.9979248046875,-0.062744140625,-0.09869384765625
1638754204484802600,2.764802490234375,-0.9964752197265625,-0.0650787353515625,-0.098876953125
1638754204494765600,2.774765625,-0.99542236328125,-0.064910888671875,-0.0980072021484375
1638754204504728600,2.784728515625,-0.9964752197265625,-0.06231689453125,-0.0975189208984375
1638754204514691300,2.79469140625,-0.9979248046875,-0.0609588623046875,-0.09747314453125
1638754204524654300,2.804654296875,-0.9985198974609375,-0.061004638671875,-0.096771240234375
1638754204534618400,2.814618408203125,-0.9969329833984375,-0.061676025390625,-0.0971527099609375
1638754204544581400,2.824581298828125,-0.9945831298828125,-0.063690185546875,-0.095947265625
1638754204554544400,2.83454443359375,-0.992919921875,-0.063232421875,-0.0994873046875
1638754204564507400,2.84450732421875,-0.99322509765625,-0.0587615966796875,-0.1004791259765625
1638754204574470400,2.854470458984375,-1.0008392333984375,-0.065887451171875,-0.0935211181640625
1638754204584433700,2.86443359375,-1.0093231201171875,-0.0712432861328125,-0.0974273681640625
1638754204594397400,2.8743974609375,-1.006011962890625,-0.0634002685546875,-0.0948486328125
1638754204604360700,2.884360595703125,-0.9997711181640625,-0.0597381591796875,-0.0948486328125
1638754204614323500,2.894323486328125,-0.9920654296875,-0.061126708984375,-0.1001129150390625
1638754204624286500,2.904286376953125,-0.986083984375,-0.0622406005859375,-0.100067138671875
1638754204634249500,2.91424951171875,-0.989715576171875,-0.065032958984375,-0.0983734130859375
1638754204644212500,2.92421240234375,-0.9998626708984375,-0.065704345703125,-0.0969390869140625
1638754204654176500,2.934176513671875,-1.005889892578125,-0.0620269775390625,-0.096893310546875
1638754204664139500,2.944139404296875,-1.00372314453125,-0.057373046875,-0.0961456298828125
1638754204674102500,2.9541025390625,-0.9962158203125,-0.05322265625,-0.0984649658203125
1638754204684065500,2.9640654296875,-0.9896087646484375,-0.057647705078125,-0.1005401611328125
1638754204694028300,2.9740283203125,-0.987823486328125,-0.0602569580078125,-0.10345458984375
1638754204703991300,2.9839912109375,-0.987152099609375,-0.066009521484375,-0.0987701416015625
1638754204713955300,2.993955322265625,-0.989105224609375,-0.0729217529296875,-0.109283447265625
1638754204723918300,3.00391845703125,-0.9942779541015625,-0.0690765380859375,-0.1116790771484375
1638754204733881600,3.013881591796875,-0.8029937744140625,-0.117919921875,-0.0587615966796875
1638754204743844600,3.0238447265625,-0.7652435302734375,-0.0799102783203125,-0.1323089599609375
1638754204753807600,3.0338076171875,-1.0312347412109375,0.129608154296875,-0.1200103759765625
1638754204763770600,3.0437705078125,-1.2288970947265625,0.0279998779296875,0.0076446533203125
1638754204773734700,3.053734619140625,-1.318878173828125,-0.1234283447265625,0.0142364501953125
1638754204783697400,3.063697509765625,-1.25103759765625,-0.2093353271484375,-0.0682220458984375
1638754204793660400,3.073660400390625,-1.047882080078125,-0.1295928955078125,-0.1540985107421875
1638754204803623400,3.08362353515625,-0.874908447265625,-0.0148468017578125,-0.1319122314453125
1638754204813586400,3.09358642578125,-0.795745849609375,0.0119476318359375,-0.0940093994140625
1638754204823550500,3.103550537109375,-0.801666259765625,-0.0437774658203125,-0.0959320068359375
1638754204833513500,3.113513427734375,-0.893035888671875,-0.120330810546875,-0.11260986328125
1638754204843476500,3.1234765625,-1.008544921875,-0.1307220458984375,-0.1059417724609375
1638754204853439500,3.133439453125,-1.0920257568359375,-0.08282470703125,-0.082427978515625
1638754204863402200,3.14340234375,-1.121246337890625,-0.0240631103515625,-0.0733184814453125
1638754204873365500,3.153365478515625,-1.0844879150390625,-0.0048370361328125,-0.083770751953125
1638754204883329300,3.163329345703125,-1.00494384765625,-0.0342559814453125,-0.091766357421875
1638754204893292500,3.17329248046875,-0.9418182373046875,-0.0728759765625,-0.0933990478515625
1638754204903255600,3.183255615234375,-0.9123687744140625,-0.0899200439453125,-0.0968170166015625
1638754204913218600,3.193218505859375,-0.9313507080078125,-0.083465576171875,-0.0986328125
1638754204923181600,3.203181640625,-0.9940643310546875,-0.064056396484375,-0.0967864990234375
1638754204933144600,3.21314453125,-1.05450439453125,-0.0489959716796875,-0.0869293212890625
1638754204943108600,3.223108642578125,-1.0677947998046875,-0.04132080078125,-0.0783538818359375
1638754204953071400,3.2330712890625,-1.0314178466796875,-0.04583740234375,-0.076812744140625
1638754204963034400,3.243034423828125,-0.9835052490234375,-0.064910888671875,-0.0852813720703125
1638754204972997400,3.252997314453125,-0.957794189453125,-0.077484130859375,-0.0997772216796875
1638754204982960400,3.26296044921875,-0.9597015380859375,-0.07049560546875,-0.104949951171875
1638754204992923400,3.27292333984375,-0.9846343994140625,-0.0569915771484375,-0.0962371826171875
1638754205002887400,3.282887451171875,-1.0109710693359375,-0.04962158203125,-0.0871429443359375
1638754205012850400,3.292850341796875,-1.025787353515625,-0.0516510009765625,-0.0826568603515625
1638754205022813400,3.3028134765625,-1.017822265625,-0.05987548828125,-0.085845947265625
1638754205032777000,3.31277685546875,-0.996917724609375,-0.0630645751953125,-0.099029541015625
1638754205042739700,3.32273974609375,-0.9813690185546875,-0.0638885498046875,-0.101654052734375
1638754205052703700,3.332703857421875,-0.978607177734375,-0.06365966796875,-0.097747802734375
1638754205062666800,3.342666748046875,-0.9896392822265625,-0.060516357421875,-0.0916748046875
1638754205072629800,3.352629638671875,-1.0066680908203125,-0.0596923828125,-0.0873870849609375
1638754205082592800,3.3625927734375,-1.0157470703125,-0.0597991943359375,-0.0927886962890625
1638754205092555800,3.3725556640625,-1.010009765625,-0.059600830078125,-0.097625732421875
1638754205102518800,3.382518798828125,-0.9966583251953125,-0.0609283447265625,-0.0959625244140625
1638754205112482800,3.39248291015625,-0.984771728515625,-0.0629730224609375,-0.0921783447265625
1638754205122445800,3.40244580078125,-0.9870452880859375,-0.0628204345703125,-0.091064453125
1638754205132408600,3.41240869140625,-0.997833251953125,-0.06121826171875,-0.0913543701171875
1638754205142371600,3.42237158203125,-1.008758544921875,-0.0569305419921875,-0.0928192138671875
1638754205152334600,3.43233447265625,-1.00994873046875,-0.0564727783203125,-0.091217041015625
1638754205162297600,3.442297607421875,-1.0007171630859375,-0.0569915771484375,-0.090484619140625
1638754205172261600,3.45226171875,-0.9921875,-0.057464599609375,-0.0880126953125
1638754205182224600,3.462224609375,-0.9875030517578125,-0.0611724853515625,-0.0889739990234375
1638754205192188000,3.47218798828125,-0.9915313720703125,-0.062042236328125,-0.0926361083984375
1638754205202151000,3.48215087890625,-1.001007080078125,-0.058197021484375,-0.0934600830078125
1638754205212113700,3.49211376953125,-1.0082550048828125,-0.056243896484375,-0.095245361328125
1638754205222076700,3.50207666015625,-1.00933837890625,-0.0583343505859375,-0.0957794189453125
1638754205232040700,3.512040771484375,-0.9991912841796875,-0.064788818359375,-0.093963623046875
1638754205242003700,3.522003662109375,-0.986572265625,-0.0673980712890625,-0.0951995849609375
1638754205251966700,3.531966796875,-0.985565185546875,-0.0635833740234375,-0.094635009765625
1638754205261929700,3.5419296875,-0.9937896728515625,-0.062225341796875,-0.095245361328125
1638754205271892700,3.551892822265625,-1.0035400390625,-0.0670013427734375,-0.1033782958984375
1638754205281855700,3.561855712890625,-1.0082550048828125,-0.066650390625,-0.1008148193359375
1638754205291819800,3.57181982421875,-1.0081024169921875,-0.0580902099609375,-0.0979766845703125
1638754205301782500,3.581782470703125,-1.011749267578125,-0.0553131103515625,-0.0984039306640625
1638754205311745500,3.59174560546875,-1.0113983154296875,-0.0587921142578125,-0.093597412109375
1638754205321708800,3.601708740234375,-1.0034637451171875,-0.060699462890625,-0.09197998046875
1638754205331671800,3.611671875,-0.9953460693359375,-0.059356689453125,-0.0942840576171875
1638754205341635600,3.621635498046875,-0.994781494140625,-0.0550994873046875,-0.0964813232421875
1638754205351598800,3.631598876953125,-1.00244140625,-0.0514068603515625,-0.0984039306640625
1638754205361561900,3.641561767578125,-1.014862060546875,-0.05120849609375,-0.0994415283203125
1638754205371524900,3.65152490234375,-1.0186614990234375,-0.053375244140625,-0.0959320068359375
1638754205381487600,3.661487548828125,-1.01397705078125,-0.054229736328125,-0.09368896484375
1638754205391450600,3.67145068359375,-1.007598876953125,-0.0552825927734375,-0.09088134765625
1638754205401414700,3.68141455078125,-0.9994659423828125,-0.05560302734375,-0.0897674560546875
1638754205411377700,3.691377685546875,-0.997406005859375,-0.05792236328125,-0.0873565673828125
1638754205421340700,3.701340576171875,-0.9977264404296875,-0.0590362548828125,-0.087249755859375
1638754205431303700,3.7113037109375,-0.9989013671875,-0.05859375,-0.0880889892578125
1638754205441266700,3.7212666015625,-1.0005950927734375,-0.0574188232421875,-0.0918426513671875
1638754205451230700,3.731230712890625,-1.0033111572265625,-0.059600830078125,-0.0958404541015625
1638754205461193700,3.74119384765625,-1.0046539306640625,-0.06103515625,-0.09539794921875
1638754205471156700,3.75115673828125,-1.0009002685546875,-0.0619354248046875,-0.090087890625
1638754205481119700,3.76111962890625,-0.9944915771484375,-0.06402587890625,-0.0877532958984375
1638754205491082800,3.771082763671875,-0.9888153076171875,-0.06878662109375,-0.0855865478515625
1638754205501045800,3.781045654296875,-0.9904937744140625,-0.07171630859375,-0.0879364013671875
1638754205511009800,3.791009765625,-0.99664306640625,-0.07281494140625,-0.0904541015625
1638754205520972800,3.800972900390625,-1.0036773681640625,-0.073089599609375,-0.0888824462890625
1638754205530935800,3.810935791015625,-1.009063720703125,-0.071044921875,-0.0891571044921875
1638754205540898800,3.82089892578125,-1.01080322265625,-0.06939697265625,-0.0872955322265625
1638754205550861800,3.83086181640625,-1.00482177734375,-0.0684661865234375,-0.079925537109375
1638754205560824600,3.840824462890625,-0.9966888427734375,-0.0664825439453125,-0.074798583984375
1638754205570788600,3.85078857421875,-0.99102783203125,-0.0672607421875,-0.0753936767578125
1638754205580751600,3.860751708984375,-0.9907073974609375,-0.06781005859375,-0.075927734375
1638754205590714600,3.870714599609375,-0.9916229248046875,-0.0656585693359375,-0.07666015625
1638754205600677600,3.880677734375,-0.9962615966796875,-0.062835693359375,-0.077606201171875
1638754205610640600,3.890640625,-1.00115966796875,-0.0598907470703125,-0.081817626953125
1638754205620604700,3.900604736328125,-1.0038604736328125,-0.06097412109375,-0.077423095703125
1638754205630567700,3.910567626953125,-1.0088653564453125,-0.061767578125,-0.071563720703125
1638754205640531000,3.920531005859375,-1.008056640625,-0.0631256103515625,-0.0652618408203125
1638754205650493700,3.93049365234375,-1.0020904541015625,-0.065826416015625,-0.0594482421875
1638754205660456700,3.940456787109375,-0.99359130859375,-0.06805419921875,-0.0561981201171875
1638754205670419700,3.950419677734375,-0.986907958984375,-0.0701904296875,-0.0541229248046875
1638754205680383700,3.9603837890625,-0.9837188720703125,-0.07086181640625,-0.0554351806640625
1638754205690346800,3.9703466796875,-0.983734130859375,-0.0708160400390625,-0.0614776611328125
1638754205700309800,3.980309814453125,-0.9874114990234375,-0.06976318359375,-0.0649261474609375
1638754205710272800,3.990272705078125,-0.9919281005859375,-0.069427490234375,-0.0633544921875
1638754205720235800,4.00023583984375,-0.9999237060546875,-0.0706634521484375,-0.0634307861328125
1638754205730199800,4.01019970703125,-1.0071258544921875,-0.070281982421875,-0.0657196044921875
1638754205740162600,4.02016259765625,-1.00579833984375,-0.07049560546875,-0.0670013427734375
1638754205750125600,4.03012548828125,-1.000457763671875,-0.070068359375,-0.07025146484375
1638754205760088600,4.040088623046875,-0.99346923828125,-0.0695343017578125,-0.07403564453125
1638754205770051800,4.0500517578125,-0.9876556396484375,-0.068511962890625,-0.0728759765625
1638754205780014800,4.060014892578125,-0.98785400390625,-0.0683441162109375,-0.0692138671875
1638754205789978600,4.069978515625,-0.99298095703125,-0.0706939697265625,-0.0570220947265625
1638754205799942000,4.07994189453125,-0.99627685546875,-0.0705413818359375,-0.0492706298828125
1638754205809905000,4.08990478515625,-0.9941253662109375,-0.0704193115234375,-0.043609619140625
1638754205819867600,4.09986767578125,-0.9859466552734375,-0.0708770751953125,-0.044891357421875
1638754205829830700,4.10983056640625,-0.98138427734375,-0.06842041015625,-0.0484619140625
1638754205839794700,4.119794677734375,-0.9839935302734375,-0.0649566650390625,-0.05413818359375
1638754205849757700,4.1297578125,-0.9970855712890625,-0.0622711181640625,-0.0678253173828125
1638754205859720700,4.139720703125,-1.013702392578125,-0.0590972900390625,-0.08612060546875
1638754205869683700,4.14968359375,-1.0313873291015625,-0.0559844970703125,-0.0883941650390625
1638754205879646700,4.159646728515625,-1.03826904296875,-0.0515899658203125,-0.0675506591796875
1638754205889609700,4.169609619140625,-1.027557373046875,-0.050628662109375,-0.0639190673828125
1638754205899573800,4.17957373046875,-1.007171630859375,-0.0523681640625,-0.0692138671875
1638754205909536800,4.189536865234375,-0.991119384765625,-0.0558013916015625,-0.0656585693359375
1638754205919499500,4.19949951171875,-0.9834747314453125,-0.0626220703125,-0.0598602294921875
1638754205929462800,4.209462890625,-0.9824066162109375,-0.0664215087890625,-0.062835693359375
1638754205939425800,4.21942578125,-0.9886627197265625,-0.067230224609375,-0.067535400390625
1638754205949389800,4.229389892578125,-1.0003509521484375,-0.0673370361328125,-0.06182861328125
1638754205959352800,4.239352783203125,-1.009429931640625,-0.061126708984375,-0.0616912841796875
1638754205969315800,4.24931591796875,-1.0141143798828125,-0.054229736328125,-0.0643310546875
1638754205979278800,4.25927880859375,-1.01336669921875,-0.0599212646484375,-0.06219482421875
1638754205989241900,4.269241943359375,-1.0052490234375,-0.0621795654296875,-0.056427001953125
1638754205999206000,4.279205810546875,-0.9937286376953125,-0.05218505859375,-0.05755615234375
1638754206009168600,4.289168701171875,-0.9842376708984375,-0.0487518310546875,-0.0307769775390625
1638754206019131600,4.299131591796875,-0.987091064453125,-0.05487060546875,0.0272979736328125
1638754206029094000,4.309093994140625,-0.9901885986328125,-0.0488739013671875,-0.006439208984375
1638754206039057000,4.319056884765625,-0.9909210205078125,-0.0430908203125,-0.04901123046875
1638754206049021000,4.32902099609375,-1.022003173828125,-0.0501708984375,-0.05816650390625
1638754206058984000,4.33898388671875,-1.03375244140625,-0.0679473876953125,-0.08465576171875
1638754206068947200,4.348947265625,-1.026519775390625,-0.073272705078125,-0.098480224609375
1638754206078910200,4.35891015625,-1.004730224609375,-0.07684326171875,-0.0941009521484375
1638754206088873200,4.368873291015625,-0.972564697265625,-0.07623291015625,-0.09521484375
1638754206098836200,4.378836181640625,-0.9577789306640625,-0.0650787353515625,-0.08660888671875
1638754206108800300,4.38880029296875,-0.9642791748046875,-0.0570220947265625,-0.0641326904296875
1638754206118763300,4.39876318359375,-0.982513427734375,-0.0495147705078125,-0.0585174560546875
1638754206128726000,4.40872607421875,-0.99664306640625,-0.04132080078125,-0.0721893310546875
1638754206138689000,4.41868896484375,-0.996734619140625,-0.0281524658203125,-0.0803985595703125
1638754206148652000,4.428652099609375,-0.98565673828125,-0.0343170166015625,-0.0770263671875
1638754206158616000,4.438615966796875,-1.021575927734375,-0.01568603515625,-0.0240478515625
1638754206168579000,4.4485791015625,-1.0391693115234375,0.0015869140625,-0.034149169921875
1638754206178542000,4.4585419921875,-1.0417633056640625,-0.0079803466796875,-0.0493927001953125
1638754206188505000,4.468505126953125,-1.056304931640625,-0.0216827392578125,-0.0174102783203125
1638754206198468000,4.478468017578125,-1.0539093017578125,-0.0351715087890625,-0.0054779052734375
1638754206208431000,4.48843115234375,-1.023193359375,-0.0612030029296875,-0.0224609375
1638754206218395000,4.498394775390625,-0.98577880859375,-0.0811309814453125,-0.03607177734375
1638754206228358100,4.508358154296875,-0.95892333984375,-0.0998992919921875,-0.035552978515625
1638754206238321200,4.518321044921875,-0.9437103271484375,-0.10784912109375,-0.0348968505859375
1638754206248284200,4.5282841796875,-0.941314697265625,-0.1022796630859375,-0.0352783203125
1638754206258247200,4.5382470703125,-0.953887939453125,-0.0892333984375,-0.039093017578125
1638754206268211200,4.548211181640625,-0.9714202880859375,-0.0577392578125,-0.0533447265625
1638754206278174200,4.55817431640625,-1.010498046875,-0.049163818359375,-0.0350494384765625
1638754206288137200,4.56813720703125,-1.0201568603515625,-0.0565643310546875,-0.01953125
1638754206298100000,4.578099853515625,-1.0036773681640625,-0.0848846435546875,-0.030426025390625
1638754206308063000,4.58806298828125,-0.9772186279296875,-0.1139984130859375,-0.0298614501953125
1638754206318027000,4.598027099609375,-0.94256591796875,-0.1240386962890625,-0.0575408935546875
1638754206327990000,4.607989990234375,-0.9245452880859375,-0.1279754638671875,-0.0879974365234375
1638754206337953000,4.617953125,-0.9282684326171875,-0.1289520263671875,-0.109832763671875
1638754206347916000,4.627916015625,-0.9534759521484375,-0.1394805908203125,-0.1025543212890625
1638754206357879000,4.637879150390625,-0.989471435546875,-0.1526641845703125,-0.099761962890625
1638754206367843000,4.647843017578125,-1.0239105224609375,-0.161651611328125,-0.119232177734375
1638754206377806000,4.65780615234375,-1.0484619140625,-0.15380859375,-0.1414031982421875
1638754206387769000,4.66776904296875,-1.062774658203125,-0.12841796875,-0.1260528564453125
1638754206397732000,4.677732177734375,-1.052520751953125,-0.0574798583984375,-0.063385009765625
1638754206407695000,4.687695068359375,-1.055450439453125,0.017059326171875,0.0168914794921875
1638754206417659100,4.6976591796875,-1.058502197265625,0.0802154541015625,0.030731201171875
1638754206427622100,4.7076220703125,-1.051055908203125,0.16583251953125,-0.02728271484375
1638754206437585200,4.717585205078125,-1.034332275390625,0.1984710693359375,-0.037506103515625
1638754206447548200,4.727548095703125,-1.0098724365234375,0.1275787353515625,-0.048309326171875
1638754206457511200,4.73751123046875,-0.9920501708984375,0.0853729248046875,-0.1416015625
1638754206467475200,4.74747509765625,-1.023529052734375,0.1134796142578125,-0.1107177734375
1638754206477438200,4.757438232421875,-1.0968017578125,0.040313720703125,0.0115509033203125
1638754206487401000,4.76740087890625,-1.089996337890625,-0.0252532958984375,-0.0475921630859375
1638754206497364000,4.777364013671875,-1.0347747802734375,-0.0506744384765625,-0.04449462890625
1638754206507327000,4.787326904296875,-0.968902587890625,-0.0577239990234375,-0.0310821533203125
1638754206517291000,4.797291015625,-0.9166717529296875,-0.05450439453125,-0.03253173828125
1638754206527254000,4.80725390625,-0.8969879150390625,-0.040130615234375,-0.031158447265625
1638754206537217000,4.817217041015625,-0.9203033447265625,-0.0203094482421875,-0.038330078125
1638754206547180300,4.82718017578125,-0.9815216064453125,-0.012420654296875,-0.0358123779296875
1638754206557143300,4.837143310546875,-1.0313873291015625,-0.0155487060546875,-0.0612335205078125
1638754206567106000,4.84710595703125,-1.05303955078125,-0.021484375,-0.0799713134765625
1638754206577070000,4.857070068359375,-1.0458221435546875,-0.0283203125,-0.068817138671875
1638754206587033000,4.867033203125,-1.0170440673828125,-0.03057861328125,-0.04791259765625
1638754206596996000,4.87699609375,-0.984588623046875,-0.0328826904296875,-0.0417327880859375
1638754206606959000,4.886958984375,-0.9583740234375,-0.0390625,-0.0352783203125
1638754206616922000,4.896922119140625,-0.9423065185546875,-0.044219970703125,-0.03436279296875
1638754206626886100,4.90688623046875,-0.9479827880859375,-0.042083740234375,-0.04034423828125
1638754206636849200,4.91684912109375,-0.9473724365234375,-0.03302001953125,-0.03778076171875
1638754206646812200,4.926812255859375,-0.87957763671875,-0.0389404296875,-0.04730224609375
1638754206656775000,4.93677490234375,-0.93743896484375,-0.043304443359375,-0.0774383544921875
1638754206666738000,4.946738037109375,-0.952056884765625,-0.0445404052734375,-0.05438232421875
1638754206676702000,4.956701904296875,-0.95941162109375,-0.047698974609375,0.0128631591796875
1638754206686665000,4.9666650390625,-1.0035552978515625,-0.01806640625,0.016143798828125
1638754206696628000,4.9766279296875,-1.069488525390625,0.038818359375,-0.0256195068359375
1638754206706591200,4.98659130859375,-1.14312744140625,0.082611083984375,-0.0484466552734375
1638754206716554200,4.99655419921875,-1.173431396484375,0.075592041015625,-0.0491943359375
1638754206726518300,5.006518310546875,-1.1267547607421875,0.0299835205078125,-0.0449066162109375
1638754206736481300,5.016481201171875,-1.0542755126953125,0.0114288330078125,-0.0381317138671875
1638754206746444000,5.026444091796875,-1.014129638671875,0.0197601318359375,-0.0328521728515625
1638754206756407000,5.036406982421875,-0.9943084716796875,0.018646240234375,-0.035675048828125
1638754206766370000,5.0463701171875,-0.9849090576171875,0.0135498046875,-0.0432891845703125
1638754206776334000,5.056333984375,-0.9737091064453125,0.00640869140625,-0.0370330810546875
1638754206786297000,5.066297119140625,-0.9808502197265625,0.0027923583984375,-0.0118408203125
1638754206796260000,5.076260009765625,-0.9724273681640625,-0.0091552734375,-0.0069732666015625
1638754206806223000,5.08622314453125,-0.9756011962890625,-0.023681640625,-0.0054931640625
1638754206816186000,5.09618603515625,-0.9974365234375,-0.033111572265625,-0.0080718994140625
1638754206826150100,5.106150146484375,-1.01519775390625,-0.032562255859375,-0.021636962890625
1638754206836113000,5.11611279296875,-1.0234832763671875,-0.0294342041015625,-0.027313232421875
1638754206846076000,5.126075927734375,-1.001495361328125,-0.041839599609375,-0.010772705078125
1638754206856039200,5.1360390625,-0.979339599609375,-0.0474395751953125,0.011810302734375
1638754206866002200,5.146002197265625,-1.0073089599609375,-0.0276336669921875,0.0094451904296875
1638754206875966000,5.155966064453125,-1.0453033447265625,0.0035247802734375,-0.00445556640625
1638754206885929200,5.16592919921875,-1.050628662109375,0.020660400390625,-0.01641845703125
1638754206895892200,5.175892333984375,-1.0337982177734375,0.0196075439453125,-0.024688720703125
1638754206905855200,5.185855224609375,-1.0157318115234375,0.0106964111328125,-0.0296478271484375
1638754206915818000,5.19581787109375,-1.0032806396484375,-0.0010833740234375,-0.03460693359375
1638754206925782300,5.2057822265625,-0.99163818359375,-0.0174102783203125,-0.04351806640625
1638754206935745000,5.2157451171875,-0.9809722900390625,-0.0322418212890625,-0.0464630126953125
1638754206945708000,5.2257080078125,-0.9774017333984375,-0.04376220703125,-0.0390625
1638754206955671000,5.235671142578125,-0.97576904296875,-0.0444183349609375,-0.0291290283203125
1638754206965635000,5.245635009765625,-0.9839935302734375,-0.037872314453125,-0.03326416015625
1638754206975598000,5.25559814453125,-0.9677276611328125,-0.042266845703125,-0.0325927734375
1638754206985561000,5.26556103515625,-0.9582672119140625,-0.03436279296875,-0.0157928466796875
1638754206995524000,5.275524169921875,-0.9802703857421875,-0.0181121826171875,-0.020721435546875
1638754207005487000,5.285487060546875,-1.0148468017578125,-0.004150390625,-0.02392578125
1638754207015451100,5.295451171875,-1.0151519775390625,-0.0058135986328125,-0.0275421142578125
1638754207025414000,5.305413818359375,-1.00689697265625,-0.0108795166015625,-0.0293426513671875
1638754207035378000,5.3153779296875,-0.9972076416015625,-0.01904296875,-0.03729248046875
1638754207045340700,5.325340576171875,-0.9982757568359375,-0.0198822021484375,-0.040313720703125
1638754207055304000,5.335303955078125,-1.0101165771484375,-0.01300048828125,-0.035430908203125
1638754207065267700,5.345267822265625,-1.0205841064453125,-0.0071868896484375,-0.042022705078125
1638754207075230700,5.355230712890625,-1.014495849609375,-0.01068115234375,-0.0418701171875
1638754207085194000,5.365194091796875,-0.9986572265625,-0.0131988525390625,-0.04058837890625
1638754207095157000,5.375156982421875,-0.984039306640625,-0.0125885009765625,-0.056243896484375
1638754207105120000,5.3851201171875,-0.983123779296875,-0.013916015625,-0.0640869140625
1638754207115084000,5.395083984375,-0.9990234375,-0.0186309814453125,-0.06292724609375
1638754207125047000,5.405047119140625,-1.0083465576171875,-0.02008056640625,-0.053436279296875
1638754207135010000,5.415010009765625,-1.0096435546875,-0.0191650390625,-0.0457000732421875
1638754207144972800,5.424972900390625,-1.0124053955078125,-0.018280029296875,-0.036590576171875
1638754207154935800,5.434935791015625,-0.9986572265625,-0.014923095703125,-0.036529541015625
1638754207164899800,5.44489990234375,-0.9846038818359375,-0.0148773193359375,-0.0434722900390625
1638754207174862800,5.45486279296875,-0.977294921875,-0.0190277099609375,-0.0535736083984375
1638754207184825900,5.464825927734375,-0.9805145263671875,-0.01690673828125,-0.0591278076171875
1638754207194788900,5.474788818359375,-1.000457763671875,-0.02435302734375,-0.052490234375
1638754207204753000,5.4847529296875,-1.034088134765625,-0.0108795166015625,-0.06561279296875
1638754207214716000,5.4947158203125,-1.0435333251953125,-0.000244140625,-0.07330322265625
1638754207224679000,5.504678955078125,-1.0363311767578125,-0.0110015869140625,-0.06732177734375
1638754207234641700,5.5146416015625,-1.00372314453125,-0.0217132568359375,-0.06396484375
1638754207244605000,5.52460498046875,-0.942962646484375,-0.0362548828125,-0.0702972412109375
1638754207254568700,5.534568603515625,-0.91748046875,-0.0419464111328125,-0.061004638671875
1638754207264532000,5.544531982421875,-0.9503173828125,-0.0111846923828125,-0.0590667724609375
1638754207274495000,5.554494873046875,-0.99798583984375,0.0102996826171875,-0.091888427734375
1638754207284458000,5.5644580078125,-1.03741455078125,0.0300140380859375,-0.0792999267578125
1638754207294421000,5.5744208984375,-1.09100341796875,0.0859375,-0.0458526611328125
1638754207304385000,5.584385009765625,-1.124359130859375,0.098236083984375,-0.058074951171875
1638754207314348000,5.59434814453125,-1.08270263671875,0.0576171875,-0.03216552734375
1638754207324310800,5.604310791015625,-1.0613555908203125,0.0283660888671875,-0.01263427734375
1638754207334273800,5.614273681640625,-1.0401153564453125,0.0332183837890625,-0.0469207763671875
1638754207344236800,5.62423681640625,-1.0172271728515625,0.02374267578125,-0.049835205078125
1638754207354200800,5.634200927734375,-0.9991912841796875,0.013031005859375,-0.0513916015625
1638754207364163800,5.644163818359375,-1.0045928955078125,0.035491943359375,-0.0557098388671875
1638754207374126800,5.654126953125,-1.015533447265625,0.0509033203125,-0.0416412353515625
1638754207384089900,5.66408984375,-1.0289764404296875,0.0532379150390625,-0.0327911376953125
1638754207394054000,5.674053955078125,-1.0438385009765625,0.046112060546875,-0.0317535400390625
1638754207404017000,5.684016845703125,-1.050689697265625,0.038116455078125,-0.022552490234375
1638754207413979600,5.693979736328125,-1.0512542724609375,0.037445068359375,-0.016387939453125
1638754207423943000,5.70394287109375,-1.037994384765625,0.0348358154296875,-0.0097198486328125
1638754207433906000,5.713906005859375,-1.0141754150390625,0.026611328125,0.01019287109375
1638754207443870000,5.723869873046875,-1.019439697265625,0.033477783203125,0.0328369140625
1638754207453833000,5.7338330078125,-1.0276031494140625,0.0480194091796875,0.0444488525390625
1638754207463796000,5.7437958984375,-1.011932373046875,0.0428314208984375,0.0493011474609375
1638754207473759000,5.753759033203125,-0.9924468994140625,0.022308349609375,0.054443359375
1638754207483722000,5.763721923828125,-0.961395263671875,-0.0004425048828125,0.0320892333984375
1638754207493686000,5.77368603515625,-0.9442138671875,-0.0243377685546875,-0.0189056396484375
1638754207503649000,5.78364892578125,-0.9430389404296875,-0.0305633544921875,-0.05413818359375
1638754207513611800,5.79361181640625,-0.9207916259765625,-0.0208282470703125,-0.031890869140625
1638754207523574800,5.80357470703125,-0.9095458984375,-0.0352783203125,0.015106201171875
1638754207533538800,5.813538818359375,-0.8513946533203125,-0.08648681640625,0.0504302978515625
1638754207543501800,5.823501708984375,-0.8087005615234375,-0.1392974853515625,0.073699951171875
1638754207553464800,5.83346484375,-0.85784912109375,-0.1446075439453125,0.070068359375
1638754207563427800,5.843427734375,-0.9322662353515625,-0.1124420166015625,0.0417938232421875
1638754207573390800,5.853390869140625,-1.0145111083984375,-0.0583953857421875,-0.0030670166015625
1638754207583355000,5.86335498046875,-1.1070404052734375,0.006683349609375,-0.040802001953125
1638754207593318000,5.87331787109375,-1.1620941162109375,0.03936767578125,-0.0944366455078125
1638754207603281000,5.883281005859375,-1.1564178466796875,0.0176849365234375,-0.1408843994140625
1638754207613244000,5.893243896484375,-1.0768890380859375,-0.04571533203125,-0.1337127685546875
1638754207623207000,5.90320703125,-0.996551513671875,-0.05975341796875,-0.0321502685546875
1638754207633171000,5.9131708984375,-0.9549102783203125,-0.0108489990234375,0.023406982421875
1638754207643134000,5.923134033203125,-0.9676055908203125,0.0206756591796875,0.00384521484375
1638754207653097000,5.933096923828125,-1.0084686279296875,0.0176849365234375,-0.00616455078125
1638754207663060000,5.94306005859375,-1.0296478271484375,0.0077056884765625,-0.007415771484375
1638754207673024000,5.95302392578125,-1.043182373046875,-0.001800537109375,0.0066680908203125
1638754207682987000,5.962987060546875,-1.0494384765625,-0.0085906982421875,0.0217742919921875
1638754207692949800,5.97294970703125,-1.02813720703125,-0.012542724609375,0.026031494140625
1638754207702912800,5.982912841796875,-1.020843505859375,-0.006439208984375,0.0063629150390625
1638754207712875800,5.992875732421875,-1.0087127685546875,-0.0051422119140625,0.0091705322265625
1638754207722839800,6.00283984375,-0.9921722412109375,-0.010894775390625,0.00726318359375
1638754207732802800,6.012802734375,-0.9859466552734375,-0.016021728515625,-0.031280517578125
1638754207742765800,6.022765869140625,-0.98687744140625,-0.0294342041015625,-0.034820556640625
1638754207752728800,6.032728759765625,-0.9799652099609375,-0.0375518798828125,-0.0107574462890625
1638754207762692900,6.04269287109375,-0.93658447265625,-0.0349273681640625,-0.0243072509765625
1638754207772655900,6.05265576171875,-0.92718505859375,0.000885009765625,-0.0232086181640625
1638754207782619000,6.062618896484375,-0.974273681640625,0.0299224853515625,0.0014801025390625
1638754207792582000,6.072581787109375,-0.999359130859375,0.0073394775390625,0.0126953125
1638754207802545000,6.082544921875,-0.99127197265625,-0.021392822265625,-0.006011962890625
1638754207812509000,6.092509033203125,-1.0040130615234375,-0.0054931640625,0.0431365966796875
1638754207822472000,6.102471923828125,-1.005859375,0.021331787109375,0.0705413818359375
1638754207832435000,6.11243505859375,-1.0209197998046875,0.02435302734375,0.0987701416015625
1638754207842398000,6.12239794921875,-1.0706024169921875,0.013702392578125,0.0837554931640625
1638754207852362000,6.132362060546875,-1.09918212890625,0.00982666015625,0.0631561279296875
1638754207862325000,6.142324951171875,-1.0977020263671875,0.0240020751953125,0.0337677001953125
1638754207872288000,6.1522880859375,-1.01483154296875,0.0116424560546875,-0.0254669189453125
1638754207882250800,6.162250732421875,-0.987091064453125,0.013397216796875,-0.041290283203125
1638754207892213800,6.1722138671875,-1.0174560546875,0.012237548828125,0.0081024169921875
1638754207902177800,6.182177734375,-1.014404296875,-0.0131378173828125,-0.0123291015625
1638754207912140800,6.192140869140625,-0.99847412109375,-0.0269622802734375,-0.0241851806640625
1638754207922103800,6.202103759765625,-0.9743804931640625,-0.0227813720703125,-0.015594482421875
1638754207932066800,6.21206689453125,-0.9499664306640625,-0.01910400390625,-0.009521484375
1638754207942030800,6.22203076171875,-0.9553070068359375,0.002471923828125,-0.01947021484375
1638754207951993900,6.231993896484375,-0.9675140380859375,0.0081787109375,-0.0236968994140625
1638754207961956900,6.241956787109375,-0.975372314453125,0.0002288818359375,-0.0176239013671875
1638754207971920000,6.251919921875,-0.9896392822265625,-0.013153076171875,-0.021759033203125
1638754207981884000,6.2618837890625,-1.0125732421875,-0.0070953369140625,-0.0311431884765625
1638754207991847000,6.271846923828125,-1.006500244140625,-0.0101318359375,-0.037261962890625
1638754208001810000,6.281809814453125,-1.018096923828125,-0.003662109375,-0.0410919189453125
1638754208011773000,6.29177294921875,-1.0305023193359375,0.003570556640625,-0.035430908203125
1638754208021736000,6.30173583984375,-1.0190582275390625,-0.0064697265625,-0.0314178466796875
1638754208031699200,6.31169921875,-1.0132293701171875,0.0065155029296875,-0.05804443359375
1638754208041662200,6.321662109375,-1.0010986328125,0.0316619873046875,-0.0563201904296875
1638754208051625200,6.331625244140625,-1.01385498046875,0.033416748046875,-0.0365447998046875
1638754208061588200,6.341588134765625,-1.01116943359375,0.02691650390625,-0.0234527587890625
1638754208071552300,6.35155224609375,-1.020904541015625,0.00384521484375,-0.029754638671875
1638754208081515300,6.361515380859375,-1.0232391357421875,-0.01507568359375,-0.0446014404296875
1638754208091478000,6.37147802734375,-1.006866455078125,-0.007720947265625,-0.0378875732421875
1638754208101441000,6.38144091796875,-0.99285888671875,0.002593994140625,-0.0430755615234375
1638754208111404300,6.391404296875,-0.9869842529296875,0.0060577392578125,-0.0469512939453125
1638754208121368000,6.4013681640625,-0.9938201904296875,0.0251922607421875,-0.0443267822265625
1638754208131331300,6.411331298828125,-1.00286865234375,0.0318603515625,-0.043609619140625
1638754208141294300,6.42129443359375,-1.0220794677734375,0.0225372314453125,-0.0511474609375
1638754208151257300,6.43125732421875,-1.0335845947265625,-0.0004425048828125,-0.05657958984375
1638754208161221400,6.441221435546875,-1.0130462646484375,-0.0172882080078125,-0.047271728515625
1638754208171184400,6.451184326171875,-1.0151824951171875,0.01580810546875,-0.022552490234375
1638754208181147400,6.4611474609375,-1.053497314453125,0.0714874267578125,-0.048980712890625
1638754208191110100,6.471110107421875,-1.0507965087890625,0.0388641357421875,-0.049530029296875
1638754208201074200,6.48107421875,-1.0277099609375,0.015380859375,-0.0465087890625
1638754208211037200,6.491037109375,-0.9830169677734375,0.00518798828125,-0.0549468994140625
1638754208221000200,6.501000244140625,-0.926544189453125,-0.023406982421875,-0.04656982421875
1638754208230963200,6.510963134765625,-0.9063720703125,-0.029876708984375,-0.0084991455078125
1638754208240926200,6.52092626953125,-0.942474365234375,-0.0125885009765625,-0.0244598388671875
1638754208250890200,6.53089013671875,-0.9699554443359375,0.013580322265625,-0.0300445556640625
1638754208260853200,6.540853271484375,-0.9349822998046875,0.0349578857421875,-0.0042724609375
1638754208270816300,6.550816162109375,-0.9518585205078125,0.04888916015625,-0.0072174072265625
1638754208280779000,6.560779052734375,-0.9546356201171875,0.0153656005859375,-0.0482025146484375
1638754208290743000,6.570742919921875,-1.0210723876953125,-0.0104217529296875,-0.0891571044921875
1638754208300706000,6.5807060546875,-1.104095458984375,-0.048553466796875,-0.115814208984375
1638754208310669000,6.5906689453125,-1.1302947998046875,-0.06195068359375,-0.0836181640625
1638754208320632300,6.60063232421875,-1.0713653564453125,-0.0142364501953125,-0.006744384765625
1638754208330596000,6.61059619140625,-0.969085693359375,0.0221710205078125,0.004608154296875
1638754208340559400,6.620559326171875,-0.9593048095703125,-0.0041961669921875,-0.0399322509765625
1638754208350522400,6.6305224609375,-1.009552001953125,0.024688720703125,-0.055938720703125
1638754208360485400,6.6404853515625,-0.97137451171875,0.027587890625,-0.038818359375
1638754208370449400,6.650449462890625,-0.940216064453125,-0.0371856689453125,-0.0494842529296875
1638754208380412200,6.660412109375,-1.04217529296875,-0.009552001953125,-0.1094970703125
1638754208390375200,6.670375244140625,-1.17010498046875,0.2016448974609375,-0.1362457275390625
1638754208400338200,6.680338134765625,-0.9770050048828125,0.18096923828125,-0.0070648193359375
1638754208410301200,6.69030126953125,-0.955413818359375,-0.008575439453125,-0.0040740966796875
1638754208420265200,6.70026513671875,-1.11077880859375,-0.03216552734375,-0.0520782470703125
1638754208430228200,6.710228271484375,-1.136962890625,0.01318359375,-0.033172607421875
1638754208440191200,6.720191162109375,-1.0225067138671875,-0.0088043212890625,-0.0443267822265625
1638754208450154200,6.730154296875,-0.979644775390625,-0.0097198486328125,-0.0758819580078125
1638754208460118300,6.7401181640625,-0.9595184326171875,0.050689697265625,-0.053436279296875
1638754208470081300,6.750081298828125,-0.9307098388671875,0.0374603271484375,-0.016632080078125
1638754208480044000,6.7600439453125,-0.89666748046875,0.0182342529296875,0.0011138916015625
1638754208490007000,6.770007080078125,-0.926910400390625,0.0335845947265625,-0.001495361328125
1638754208499971000,6.77997119140625,-0.9344024658203125,0.009735107421875,-0.01239013671875
1638754208509934000,6.78993408203125,-0.9808349609375,-0.0374603271484375,-0.0488128662109375
1638754208519897300,6.7998974609375,-1.054534912109375,-0.0529937744140625,-0.1094818115234375
1638754208529860400,6.8098603515625,-1.0655517578125,-0.043670654296875,-0.126556396484375
1638754208539824000,6.81982421875,-1.028961181640625,-0.0084228515625,-0.107269287109375
1638754208549787400,6.829787353515625,-0.96466064453125,0.0119171142578125,-0.0491943359375
1638754208559750400,6.83975048828125,-0.9795989990234375,-0.0026397705078125,-0.037261962890625
1638754208569713200,6.849713134765625,-1.0398101806640625,0.0401611328125,-0.063690185546875
1638754208579677200,6.85967724609375,-0.9924774169921875,0.0045166015625,-0.071685791015625
1638754208589640200,6.86964013671875,-0.98785400390625,-0.0472564697265625,-0.078643798828125
1638754208599603200,6.879603271484375,-1.031463623046875,-0.030670166015625,-0.092498779296875
1638754208609566200,6.889566162109375,-1.09375,0.0589599609375,-0.115631103515625
1638754208619529200,6.899529296875,-1.1115570068359375,0.1427459716796875,-0.1131591796875
1638754208629493200,6.9094931640625,-1.1164093017578125,0.1841888427734375,-0.0923919677734375
1638754208639456300,6.919456298828125,-1.060821533203125,0.14251708984375,-0.06243896484375
1638754208649419300,6.929419189453125,-1.0047607421875,-0.0001983642578125,-0.033172607421875
1638754208659382000,6.939382080078125,-1.018035888671875,-0.07708740234375,-0.0433502197265625
1638754208669346300,6.94934619140625,-1.0206146240234375,-0.0774688720703125,-0.030731201171875
1638754208679309000,6.95930908203125,-0.9932708740234375,-0.0507965087890625,-0.027557373046875
1638754208689272000,6.96927197265625,-0.9727935791015625,-0.03021240234375,-0.034515380859375
1638754208699235300,6.9792353515625,-0.969573974609375,-0.0196685791015625,-0.047393798828125
1638754208709199000,6.98919921875,-0.9909515380859375,0.002655029296875,-0.074920654296875
1638754208719162000,6.999162109375,-1.0253753662109375,0.0159759521484375,-0.0909271240234375
1638754208729125400,7.00912548828125,-0.96966552734375,-0.0239105224609375,-0.0211029052734375
1638754208739088400,7.01908837890625,-0.837646484375,-0.0462799072265625,0.070098876953125
1638754208749052200,7.02905224609375,-0.8405609130859375,0.0042724609375,0.105072021484375
1638754208759015400,7.039015380859375,-0.9341278076171875,0.02813720703125,0.033966064453125
1638754208768978200,7.048978271484375,-1.0523529052734375,0.0212249755859375,-0.078155517578125
1638754208778941200,7.058941162109375,-1.13287353515625,0.00762939453125,-0.1509246826171875
1638754208788905200,7.0689052734375,-1.13214111328125,-0.0201873779296875,-0.1850738525390625
1638754208798868200,7.0788681640625,-0.9944305419921875,-0.048919677734375,-0.2145233154296875
1638754208808831200,7.088831298828125,-0.852020263671875,-0.018280029296875,-0.246551513671875
1638754208818794200,7.098794189453125,-0.8138275146484375,-0.007476806640625,-0.1705474853515625
1638754208828758300,7.10875830078125,-0.83599853515625,-0.01226806640625,-0.0482025146484375
1638754208838721300,7.11872119140625,-0.909271240234375,-0.0319366455078125,0.0062408447265625
1638754208848684300,7.128684326171875,-1.01971435546875,-0.0450439453125,-0.001495361328125
1638754208858647000,7.13864697265625,-1.112640380859375,-0.029815673828125,-0.0260467529296875
1638754208868611300,7.148611328125,-1.1436309814453125,0.0030670166015625,-0.062744140625
1638754208878574000,7.158573974609375,-1.1151580810546875,0.0199432373046875,-0.09991455078125
1638754208888537000,7.168537109375,-1.0442962646484375,0.0048828125,-0.11407470703125
1638754208898500000,7.1785,-0.9775848388671875,-0.0222015380859375,-0.1002655029296875
1638754208908464000,7.188464111328125,-0.9368133544921875,-0.0119781494140625,-0.10040283203125
1638754208918427100,7.19842724609375,-0.9312744140625,-0.00469970703125,-0.0855865478515625
1638754208928390100,7.20839013671875,-0.9651336669921875,0.0063934326171875,-0.0987701416015625
1638754208938353400,7.218353515625,-0.9881439208984375,0.01934814453125,-0.0867919921875
1638754208948317200,7.228317138671875,-1.0030517578125,0.029205322265625,-0.05828857421875
1638754208958280400,7.238280517578125,-1.040557861328125,0.0467529296875,-0.0297393798828125
1638754208968243200,7.2482431640625,-1.07171630859375,0.0716552734375,-0.0266265869140625
1638754208978206200,7.258206298828125,-1.0939178466796875,0.0823822021484375,-0.0371856689453125
1638754208988170200,7.268170166015625,-1.0815277099609375,0.0413970947265625,-0.0381622314453125
1638754208998133200,7.27813330078125,-1.0303802490234375,0.0490875244140625,-0.038604736328125
1638754209008096300,7.28809619140625,-0.9671783447265625,0.062164306640625,-0.03887939453125
1638754209018059300,7.298059326171875,-0.9311676025390625,0.11962890625,-0.0558013916015625
1638754209028023300,7.308023193359375,-0.92742919921875,0.102935791015625,-0.07025146484375
1638754209037987000,7.317987060546875,-0.9613189697265625,0.065643310546875,-0.038330078125
1638754209047950000,7.3279501953125,-0.99700927734375,0.0202178955078125,-0.0249176025390625
1638754209057913000,7.3379130859375,-1.0113067626953125,-0.0130615234375,-0.0416717529296875
1638754209067877000,7.347877197265625,-1.00177001953125,-0.050323486328125,-0.060089111328125
1638754209077840100,7.357840087890625,-0.9743194580078125,-0.08245849609375,-0.08563232421875
1638754209087803100,7.36780322265625,-0.9441375732421875,-0.142181396484375,-0.071685791015625
1638754209097766100,7.37776611328125,-0.9274749755859375,-0.232757568359375,-0.066192626953125
1638754209107730200,7.387730224609375,-0.9113311767578125,-0.3018646240234375,-0.1523590087890625
1638754209117693200,7.397693115234375,-0.919586181640625,-0.3489990234375,-0.306243896484375
1638754209127656000,7.407656005859375,-0.93743896484375,-0.35595703125,-0.421173095703125
1638754209137619000,7.417618896484375,-0.9708404541015625,-0.2804412841796875,-0.3824615478515625
1638754209147583000,7.4275830078125,-0.999267578125,-0.14813232421875,-0.2028961181640625
1638754209157546000,7.4375458984375,-1.03485107421875,-0.0216522216796875,-0.1279144287109375
1638754209167509000,7.447509033203125,-1.10845947265625,0.028076171875,-0.1265716552734375
1638754209177472000,7.457471923828125,-1.1766357421875,0.0116119384765625,-0.1617279052734375
1638754209187436000,7.46743603515625,-1.16650390625,-0.02947998046875,-0.2153167724609375
1638754209197399000,7.47739892578125,-1.07354736328125,-0.0540008544921875,-0.2066802978515625
1638754209207362000,7.487362060546875,-0.975677490234375,-0.0641021728515625,-0.1901092529296875
1638754209217325300,7.4973251953125,-0.92254638671875,-0.091064453125,-0.1820068359375
1638754209227289000,7.5072890625,-0.911285400390625,-0.1199951171875,-0.1678924560546875
1638754209237252000,7.517252197265625,-0.925018310546875,-0.1318817138671875,-0.1541748046875
1638754209247215000,7.527215087890625,-0.94873046875,-0.12548828125,-0.1409149169921875
1638754209257178000,7.53717822265625,-0.9722900390625,-0.1025848388671875,-0.1446075439453125
1638754209267142100,7.54714208984375,-0.98663330078125,-0.0713653564453125,-0.164703369140625
1638754209277105200,7.557105224609375,-0.9937591552734375,-0.0548248291015625,-0.1692657470703125
1638754209287068200,7.567068115234375,-0.9922332763671875,-0.0565032958984375,-0.1547698974609375
1638754209297031200,7.57703125,-0.97991943359375,-0.0642852783203125,-0.1411895751953125
1638754209306995200,7.5869951171875,-0.962249755859375,-0.0664825439453125,-0.1422119140625
1638754209316958200,7.596958251953125,-0.9512786865234375,-0.057342529296875,-0.1580963134765625
1638754209326921000,7.6069208984375,-0.94866943359375,-0.0446624755859375,-0.1845703125
1638754209336884000,7.616884033203125,-0.9612579345703125,-0.0439453125,-0.19915771484375
1638754209346848000,7.626847900390625,-0.980438232421875,-0.0458831787109375,-0.1950836181640625
1638754209356811000,7.63681103515625,-0.992034912109375,-0.0490875244140625,-0.1828765869140625
1638754209366774000,7.64677392578125,-1.0011749267578125,-0.0575103759765625,-0.17364501953125
1638754209376737000,7.656737060546875,-1.0072784423828125,-0.0664825439453125,-0.1575469970703125
1638754209386701000,7.666701171875,-1.00567626953125,-0.0771484375,-0.1372222900390625
1638754209396664000,7.6766640625,-0.9935302734375,-0.0832366943359375,-0.1187896728515625
1638754209406627000,7.686626953125,-0.9775543212890625,-0.0939178466796875,-0.0952606201171875
1638754209416590300,7.69659033203125,-0.9640045166015625,-0.1090240478515625,-0.0738983154296875
1638754209426554000,7.70655419921875,-0.95660400390625,-0.092010498046875,-0.0729522705078125
1638754209436517000,7.71651708984375,-0.9485626220703125,-0.032012939453125,-0.106536865234375
1638754209446480100,7.726480224609375,-0.941741943359375,0.002532958984375,-0.172271728515625
1638754209456443100,7.736443115234375,-0.989044189453125,0.0024871826171875,-0.2054290771484375
1638754209466407200,7.7464072265625,-1.0745391845703125,-0.030059814453125,-0.15228271484375
1638754209476370200,7.7563701171875,-1.149200439453125,-0.088134765625,-0.08984375
1638754209486333200,7.766333251953125,-1.135406494140625,-0.1148529052734375,-0.102813720703125
1638754209496296200,7.776296142578125,-1.0457611083984375,-0.087066650390625,-0.158355712890625
1638754209506260200,7.78626025390625,-0.9667510986328125,-0.0616607666015625,-0.17572021484375
1638754209516223200,7.79622314453125,-0.926544189453125,-0.0682830810546875,-0.1715087890625
1638754209526186000,7.80618603515625,-0.91357421875,-0.088287353515625,-0.1609344482421875
1638754209536150000,7.81614990234375,-0.931610107421875,-0.098236083984375,-0.139495849609375
1638754209546113000,7.826113037109375,-0.9751739501953125,-0.0903472900390625,-0.120697021484375
1638754209556076000,7.836075927734375,-1.0204010009765625,-0.0746002197265625,-0.1207427978515625
1638754209566039000,7.8460390625,-1.042022705078125,-0.0626373291015625,-0.13128662109375
1638754209576003000,7.856003173828125,-1.0256195068359375,-0.0596466064453125,-0.137359619140625
1638754209585966000,7.865966064453125,-0.9838104248046875,-0.06591796875,-0.131988525390625
1638754209595929000,7.87592919921875,-0.95556640625,-0.0778961181640625,-0.1247711181640625
1638754209605892000,7.88589208984375,-0.95184326171875,-0.088043212890625,-0.124908447265625
1638754209615856000,7.895856201171875,-0.9668121337890625,-0.083892822265625,-0.1272735595703125
1638754209625819100,7.905819091796875,-0.991302490234375,-0.069915771484375,-0.1320953369140625
1638754209635782000,7.915781982421875,-1.0111236572265625,-0.0612945556640625,-0.1343994140625
1638754209645745200,7.9257451171875,-1.020751953125,-0.0662078857421875,-0.1307830810546875
1638754209655709000,7.935708984375,-1.01251220703125,-0.0765380859375,-0.126861572265625
1638754209665672000,7.945671875,-0.9907989501953125,-0.081939697265625,-0.1273651123046875
1638754209675635200,7.95563525390625,-0.976959228515625,-0.0825958251953125,-0.131317138671875
1638754209685598200,7.96559814453125,-0.98297119140625,-0.080413818359375,-0.1377105712890625
1638754209695562200,7.975562255859375,-0.9975128173828125,-0.0748748779296875,-0.142547607421875
1638754209705525200,7.985525146484375,-1.007568359375,-0.0702056884765625,-0.1395721435546875
1638754209715488300,7.99548828125,-1.00823974609375,-0.0682525634765625,-0.136688232421875
1638754209725451000,8.005450927734374,-1.0067596435546875,-0.069183349609375,-0.13726806640625
1638754209735415000,8.0154150390625,-1.0050201416015625,-0.0714569091796875,-0.1393280029296875
1638754209745378000,8.0253779296875,-1.00128173828125,-0.0721435546875,-0.141632080078125
1638754209755341000,8.035341064453124,-1.00152587890625,-0.0712738037109375,-0.143157958984375
1638754209765304000,8.045303955078126,-1.0055084228515625,-0.0676422119140625,-0.13916015625
1638754209775268000,8.05526806640625,-1.0041656494140625,-0.063629150390625,-0.1318511962890625
1638754209785231000,8.065231201171875,-0.9924774169921875,-0.0633544921875,-0.126922607421875
1638754209795194000,8.075194091796876,-0.980316162109375,-0.0663299560546875,-0.1283416748046875
1638754209805158100,8.085158203125,-0.9770355224609375,-0.0712890625,-0.1352386474609375
1638754209815121200,8.09512109375,-0.9854278564453125,-0.0712890625,-0.1414337158203125
1638754209825084200,8.105084228515626,-1.003265380859375,-0.0634613037109375,-0.13995361328125
1638754209835047000,8.115046875,-1.014801025390625,-0.0570220947265625,-0.1305084228515625
1638754209845011000,8.125010986328125,-1.0118408203125,-0.0527191162109375,-0.119903564453125
1638754209854974000,8.134973876953126,-0.9990234375,-0.0477142333984375,-0.1048583984375
1638754209864937000,8.14493701171875,-0.97674560546875,-0.0451812744140625,-0.097808837890625
1638754209874900200,8.154900146484374,-0.957489013671875,-0.045379638671875,-0.101165771484375
1638754209884864000,8.164864013671876,-0.9506378173828125,-0.049072265625,-0.1004486083984375
1638754209894827000,8.174826904296875,-0.958740234375,-0.0557098388671875,-0.0988311767578125
1638754209904790300,8.184790283203125,-0.97381591796875,-0.06402587890625,-0.1003265380859375
1638754209914753300,8.194753173828126,-0.988983154296875,-0.0696868896484375,-0.1045989990234375
1638754209924717300,8.20471728515625,-0.9985809326171875,-0.0753173828125,-0.1145172119140625
1638754209934680000,8.21468017578125,-1.0041351318359375,-0.080474853515625,-0.1289520263671875
1638754209944643000,8.22464306640625,-1.0050811767578125,-0.087921142578125,-0.1399383544921875
1638754209954606000,8.234606201171875,-1.001068115234375,-0.0948333740234375,-0.1437530517578125
1638754209964570000,8.244570068359375,-0.9941253662109375,-0.094757080078125,-0.1341705322265625
1638754209974533000,8.254533203125,-0.9862213134765625,-0.0836029052734375,-0.1143035888671875
1638754209984496000,8.26449609375,-0.973175048828125,-0.0604400634765625,-0.1044921875
1638754209994460200,8.274460205078125,-0.970703125,-0.042999267578125,-0.0947265625
1638754210004423200,8.284423095703126,-0.9728851318359375,-0.0543975830078125,-0.1104583740234375
1638754210014386200,8.29438623046875,-0.96221923828125,-0.061431884765625,-0.119964599609375
1638754210024349200,8.30434912109375,-0.9705963134765625,-0.05712890625,-0.10675048828125
1638754210034312000,8.31431201171875,-0.9846649169921875,-0.0656890869140625,-0.1207122802734375
1638754210044275000,8.32427490234375,-1.001861572265625,-0.08135986328125,-0.129364013671875
1638754210054238200,8.33423828125,-1.014404296875,-0.0906829833984375,-0.1304473876953125
1638754210064201200,8.344201171875,-1.013031005859375,-0.0894012451171875,-0.135986328125
1638754210074165000,8.3541650390625,-1.001922607421875,-0.086639404296875,-0.1351318359375
1638754210084128300,8.364128173828124,-0.992401123046875,-0.089569091796875,-0.132476806640625
1638754210094091300,8.37409130859375,-0.9896087646484375,-0.0954437255859375,-0.1288604736328125
1638754210104054300,8.38405419921875,-0.9937286376953125,-0.0970306396484375,-0.128570556640625
1638754210114018300,8.394018310546874,-0.999969482421875,-0.0923309326171875,-0.1331329345703125
1638754210123981000,8.40398095703125,-1.010589599609375,-0.0866546630859375,-0.1368560791015625
1638754210133944000,8.413944091796875,-1.0187530517578125,-0.0821685791015625,-0.1447601318359375
1638754210143908000,8.423908203125,-1.0211029052734375,-0.0782012939453125,-0.1512908935546875
1638754210153871000,8.43387109375,-1.021942138671875,-0.075958251953125,-0.1564178466796875
1638754210163834000,8.443834228515625,-1.0190887451171875,-0.0754241943359375,-0.1621856689453125
1638754210173797000,8.453797119140624,-1.0152435302734375,-0.074554443359375,-0.1640167236328125
1638754210183761200,8.46376123046875,-1.0102996826171875,-0.07342529296875,-0.1627197265625
1638754210193724200,8.47372412109375,-1.005859375,-0.0706939697265625,-0.164276123046875
1638754210203687200,8.483687255859374,-1.0052337646484375,-0.064605712890625,-0.163482666015625
1638754210213650000,8.49364990234375,-1.0072479248046875,-0.056427001953125,-0.1629638671875
1638754210223614000,8.503614013671875,-1.0086669921875,-0.0460662841796875,-0.1594696044921875
1638754210233577000,8.513576904296874,-1.0084686279296875,-0.0386505126953125,-0.152679443359375
1638754210243540000,8.5235400390625,-1.0054931640625,-0.0355072021484375,-0.1417388916015625
1638754210253504000,8.53350390625,-0.99993896484375,-0.035552978515625,-0.12921142578125
1638754210263467000,8.543467041015624,-0.9870147705078125,-0.0362396240234375,-0.1171722412109375
1638754210273430000,8.553429931640625,-0.97625732421875,-0.04083251953125,-0.11297607421875
1638754210283393000,8.56339306640625,-0.9761505126953125,-0.04913330078125,-0.1131439208984375
1638754210293357000,8.573357177734374,-0.981201171875,-0.0536651611328125,-0.1128387451171875
1638754210303320000,8.583320068359376,-0.9874114990234375,-0.0569915771484375,-0.10906982421875
1638754210313283300,8.593283447265625,-0.986541748046875,-0.0586700439453125,-0.1040496826171875
1638754210323247000,8.6032470703125,-0.981475830078125,-0.057403564453125,-0.098419189453125
1638754210333210000,8.613210205078126,-0.97723388671875,-0.0508270263671875,-0.0950164794921875
1638754210343173000,8.623173095703125,-0.974700927734375,-0.041351318359375,-0.094970703125
1638754210353136000,8.63313623046875,-0.9735107421875,-0.03375244140625,-0.0944671630859375
1638754210363100200,8.64310009765625,-0.9700469970703125,-0.0335693359375,-0.0938262939453125
1638754210373063200,8.653063232421875,-0.9656524658203125,-0.0393829345703125,-0.0971832275390625
1638754210383026200,8.663026123046874,-0.964935302734375,-0.0476226806640625,-0.102630615234375
1638754210392989200,8.6729892578125,-0.9709930419921875,-0.0547027587890625,-0.1097564697265625
1638754210402953200,8.682953125,-0.9825286865234375,-0.0578460693359375,-0.1135711669921875
1638754210412916200,8.692916259765624,-0.991180419921875,-0.05841064453125,-0.1150665283203125
1638754210422879000,8.70287890625,-0.9898681640625,-0.0587158203125,-0.113861083984375
1638754210432843300,8.71284326171875,-0.9808197021484375,-0.057952880859375,-0.1145782470703125
1638754210442806000,8.722805908203124,-0.96875,-0.060455322265625,-0.1202850341796875
1638754210452769000,8.73276904296875,-0.958587646484375,-0.0653228759765625,-0.1245880126953125
1638754210462732000,8.74273193359375,-0.9568328857421875,-0.07000732421875,-0.1294097900390625
1638754210472696000,8.752696044921874,-0.962188720703125,-0.0764007568359375,-0.132354736328125
1638754210482659000,8.7626591796875,-0.9703521728515625,-0.0816650390625,-0.132720947265625
1638754210492622000,8.7726220703125,-0.9779815673828125,-0.0822906494140625,-0.13385009765625
1638754210502585000,8.782585205078124,-0.9976654052734375,-0.08013916015625,-0.1446380615234375
1638754210512549000,8.792549072265626,-1.0310211181640625,-0.0758514404296875,-0.158782958984375
1638754210522512100,8.80251220703125,-1.0569610595703125,-0.069549560546875,-0.1445770263671875
1638754210532475000,8.812474853515624,-1.049224853515625,-0.0634307861328125,-0.1121978759765625
1638754210542439000,8.82243896484375,-1.0067138671875,-0.0684967041015625,-0.1082000732421875
1638754210552402000,8.83240185546875,-0.9616546630859375,-0.0814971923828125,-0.1190948486328125
1638754210562365000,8.842364990234374,-0.94134521484375,-0.090728759765625,-0.130340576171875
1638754210572328200,8.852328125,-0.948944091796875,-0.09564208984375,-0.1470184326171875
1638754210582292000,8.8622919921875,-0.98126220703125,-0.0987091064453125,-0.174652099609375
1638754210592255200,8.872255126953124,-1.030059814453125,-0.104095458984375,-0.193206787109375
1638754210602218200,8.88221826171875,-1.069183349609375,-0.1097564697265625,-0.197906494140625
1638754210612182000,8.89218212890625,-1.0837554931640625,-0.1120758056640625,-0.19622802734375
1638754210622145300,8.902145263671875,-1.0691070556640625,-0.10906982421875,-0.201751708984375
1638754210632108300,8.9121083984375,-1.043975830078125,-0.105377197265625,-0.2095947265625
1638754210642071000,8.922071044921875,-1.0232696533203125,-0.10040283203125,-0.205535888671875
1638754210652035000,8.93203515625,-1.015533447265625,-0.0941925048828125,-0.1915283203125
1638754210661998000,8.941998046875,-1.017242431640625,-0.08892822265625,-0.1767578125
1638754210671961000,8.951961181640625,-1.0187530517578125,-0.08282470703125,-0.1597747802734375
1638754210681924000,8.961924072265624,-1.007171630859375,-0.0753326416015625,-0.14044189453125
1638754210691888000,8.97188818359375,-0.9858245849609375,-0.0714263916015625,-0.129638671875
1638754210701851100,8.98185107421875,-0.9687652587890625,-0.0758209228515625,-0.1253204345703125
1638754210711814100,8.991814208984374,-0.96771240234375,-0.083984375,-0.118255615234375
1638754210721778200,9.001778076171876,-0.9703826904296875,-0.0929412841796875,-0.1068115234375
1638754210731741200,9.0117412109375,-0.9662322998046875,-0.09796142578125,-0.0983123779296875
1638754210741704000,9.021703857421874,-0.9529266357421875,-0.0965423583984375,-0.0932464599609375
1638754210751667000,9.0316669921875,-0.9385528564453125,-0.0850830078125,-0.094146728515625
1638754210761631000,9.041630859375,-0.936065673828125,-0.065673828125,-0.1085357666015625
1638754210771594000,9.051593994140624,-0.9465484619140625,-0.0440521240234375,-0.126983642578125
1638754210781557000,9.061556884765626,-0.9639129638671875,-0.01922607421875,-0.136962890625
1638754210791521000,9.07152099609375,-0.977081298828125,0.00640869140625,-0.150054931640625
1638754210801484000,9.081484130859375,-0.9769134521484375,0.0229339599609375,-0.1555938720703125
1638754210811447000,9.091447021484376,-0.97454833984375,0.012237548828125,-0.1479034423828125
1638754210821410300,9.101410400390625,-0.9818267822265625,-0.008331298828125,-0.13470458984375
1638754210831374000,9.1113740234375,-0.9851226806640625,-0.020904541015625,-0.1309814453125
1638754210841337000,9.121337158203126,-0.9818878173828125,-0.03424072265625,-0.1274566650390625
1638754210851300000,9.131300048828125,-0.9814453125,-0.05224609375,-0.128875732421875
1638754210861264000,9.141263916015625,-0.9874267578125,-0.0696563720703125,-0.1327667236328125
1638754210871227100,9.15122705078125,-0.996429443359375,-0.07843017578125,-0.1341705322265625
1638754210881190100,9.161190185546875,-1.0067596435546875,-0.0810089111328125,-0.131500244140625
1638754210891153200,9.171153076171874,-1.0163726806640625,-0.084197998046875,-0.130767822265625
1638754210901117200,9.1811171875,-1.0268402099609375,-0.0892333984375,-0.1419830322265625
1638754210911080200,9.191080078125,-1.0400848388671875,-0.091644287109375,-0.157989501953125
1638754210921043200,9.201043212890625,-1.0489959716796875,-0.0933380126953125,-0.16778564453125
1638754210931007200,9.21100732421875,-1.0455322265625,-0.097198486328125,-0.172882080078125
1638754210940970200,9.22097021484375,-1.0219268798828125,-0.0979156494140625,-0.17230224609375
1638754210950933000,9.23093310546875,-0.9950408935546875,-0.093841552734375,-0.1639251708984375
1638754210960896000,9.24089599609375,-0.978424072265625,-0.09356689453125,-0.1642608642578125
1638754210970860000,9.250860107421875,-0.979400634765625,-0.0976715087890625,-0.1682891845703125
1638754210980823000,9.260822998046875,-0.9880218505859375,-0.0966644287109375,-0.1618194580078125
1638754210990786000,9.2707861328125,-0.9919891357421875,-0.087371826171875,-0.1592559814453125
1638754211000750000,9.28075,-0.9920654296875,-0.0769805908203125,-0.1596221923828125
1638754211010713000,9.290713134765625,-0.9925537109375,-0.0704345703125,-0.1547698974609375
1638754211020676000,9.300676025390626,-0.987030029296875,-0.066986083984375,-0.15478515625
1638754211030639000,9.31063916015625,-0.9803466796875,-0.0667877197265625,-0.153564453125
1638754211040603100,9.32060302734375,-0.98040771484375,-0.067169189453125,-0.14898681640625
1638754211050566100,9.330566162109376,-0.983306884765625,-0.064544677734375,-0.1492462158203125
1638754211060529200,9.340529052734375,-0.9840850830078125,-0.0598602294921875,-0.147979736328125
1638754211070493200,9.3504931640625,-0.9806976318359375,-0.05322265625,-0.1437225341796875
1638754211080456000,9.3604560546875,-0.978302001953125,-0.049072265625,-0.1401519775390625
1638754211090419000,9.3704189453125,-0.980743408203125,-0.0496368408203125,-0.1327362060546875
1638754211100382200,9.38038232421875,-0.9871063232421875,-0.0521392822265625,-0.1239776611328125
1638754211110346000,9.390345947265626,-0.9947052001953125,-0.0579833984375,-0.119476318359375
1638754211120309000,9.40030908203125,-0.9956512451171875,-0.0645751953125,-0.1214141845703125
1638754211130272300,9.410272216796875,-0.98846435546875,-0.0686492919921875,-0.126434326171875
1638754211140236000,9.420236083984374,-0.98040771484375,-0.07110595703125,-0.1289215087890625
1638754211150199300,9.43019921875,-0.9765472412109375,-0.0755462646484375,-0.1290283203125
1638754211160162300,9.440162353515625,-0.9785919189453125,-0.0803985595703125,-0.1303558349609375
1638754211170125300,9.450125244140626,-0.989227294921875,-0.082763671875,-0.1350860595703125
1638754211180089300,9.46008935546875,-0.999603271484375,-0.081085205078125,-0.1407470703125
1638754211190052000,9.470052001953125,-1.0061492919921875,-0.0775604248046875,-0.1468658447265625
1638754211200015000,9.48001513671875,-1.004608154296875,-0.0748748779296875,-0.1467742919921875
1638754211209979100,9.489979248046875,-0.9971160888671875,-0.07452392578125,-0.144805908203125
1638754211219942100,9.499942138671875,-0.98956298828125,-0.0728759765625,-0.1435394287109375
1638754211229905200,9.5099052734375,-0.9901580810546875,-0.07049560546875,-0.1450347900390625
1638754211239869200,9.519869140625,-0.99566650390625,-0.0686492919921875,-0.1422882080078125
1638754211249832200,9.529832275390625,-1.0003662109375,-0.0691986083984375,-0.142486572265625
1638754211259795200,9.539795166015624,-1.003936767578125,-0.072967529296875,-0.1499481201171875
1638754211269758200,9.54975830078125,-1.0070953369140625,-0.0769805908203125,-0.157135009765625
1638754211279722200,9.55972216796875,-1.0063323974609375,-0.078094482421875,-0.1591033935546875
1638754211289685200,9.569685302734374,-1.003021240234375,-0.0763092041015625,-0.15692138671875
1638754211299648000,9.57964794921875,-1.000213623046875,-0.0740814208984375,-0.15130615234375
1638754211309612000,9.589612060546875,-0.9978179931640625,-0.0720367431640625,-0.14691162109375
1638754211319575000,9.599574951171874,-0.9973602294921875,-0.0679779052734375,-0.1468963623046875
1638754211329538000,9.6095380859375,-0.9965972900390625,-0.0660858154296875,-0.145782470703125
1638754211339501000,9.6195009765625,-0.9971771240234375,-0.0656280517578125,-0.1419525146484375
1638754211349465000,9.629465087890624,-0.996063232421875,-0.0663909912109375,-0.1370086669921875
1638754211359428000,9.639427978515625,-0.9897003173828125,-0.069244384765625,-0.132720947265625
1638754211369391000,9.64939111328125,-0.9840240478515625,-0.069366455078125,-0.134796142578125
1638754211379355100,9.659355224609374,-0.984588623046875,-0.0673675537109375,-0.1418304443359375
1638754211389318100,9.669318115234375,-0.9945220947265625,-0.0661468505859375,-0.144775390625
1638754211399281200,9.67928125,-1.0082855224609375,-0.063720703125,-0.141448974609375
1638754211409244200,9.689244140625,-1.0131683349609375,-0.06158447265625,-0.1336669921875
1638754211419208000,9.6992080078125,-1.0045928955078125,-0.0608673095703125,-0.123748779296875
1638754211429171200,9.709171142578125,-0.987945556640625,-0.0610198974609375,-0.11572265625
1638754211439134200,9.71913427734375,-0.97271728515625,-0.0586090087890625,-0.112579345703125
1638754211449098000,9.729097900390625,-0.965728759765625,-0.05889892578125,-0.111175537109375
1638754211459061200,9.739061279296875,-0.9730987548828125,-0.0602264404296875,-0.1095428466796875
1638754211469024300,9.749024169921874,-0.985260009765625,-0.062042236328125,-0.1081085205078125
1638754211478988300,9.75898828125,-0.991363525390625,-0.06536865234375,-0.107757568359375
1638754211488951300,9.768951416015625,-0.991455078125,-0.069183349609375,-0.1113128662109375
1638754211498914300,9.778914306640624,-0.9903411865234375,-0.07330322265625,-0.117767333984375
1638754211508877000,9.788876953125,-0.9908905029296875,-0.0769805908203125,-0.1234283447265625
1638754211518841000,9.798841064453125,-0.99200439453125,-0.0788726806640625,-0.1257171630859375
1638754211528804000,9.80880419921875,-0.9915618896484375,-0.0808868408203125,-0.125579833984375
1638754211538767000,9.81876708984375,-0.9857940673828125,-0.08319091796875,-0.1248016357421875
1638754211548731100,9.828731201171875,-0.9787750244140625,-0.082550048828125,-0.1210784912109375
1638754211558694100,9.838694091796874,-0.97418212890625,-0.0772247314453125,-0.1171417236328125
1638754211568657200,9.8486572265625,-0.9730377197265625,-0.068817138671875,-0.112701416015625
1638754211578620200,9.8586201171875,-0.977630615234375,-0.0614013671875,-0.1104278564453125
1638754211588584200,9.868584228515624,-0.9799652099609375,-0.05950927734375,-0.11248779296875
1638754211598547200,9.878547119140626,-0.98388671875,-0.06134033203125,-0.11712646484375
1638754211608510000,9.888510009765625,-0.986358642578125,-0.0667572021484375,-0.1250152587890625
1638754211618474200,9.89847412109375,-0.979217529296875,-0.07421875,-0.1321868896484375
1638754211628437000,9.90843701171875,-0.971954345703125,-0.076934814453125,-0.131072998046875
1638754211638400000,9.91839990234375,-0.978485107421875,-0.072021484375,-0.1279449462890625
1638754211648364000,9.928364013671874,-1.00445556640625,-0.0629425048828125,-0.1235198974609375
1638754211658327000,9.9383271484375,-1.0261993408203125,-0.0562896728515625,-0.1161651611328125
1638754211668290000,9.9482900390625,-1.0156097412109375,-0.051788330078125,-0.107879638671875
1638754211678253000,9.958253173828124,-0.9736175537109375,-0.052642822265625,-0.106109619140625
1638754211688217000,9.968217041015626,-0.939849853515625,-0.0596160888671875,-0.10614013671875
1638754211698180000,9.97818017578125,-0.9377593994140625,-0.072052001953125,-0.1146087646484375
1638754211708143400,9.988143310546874,-0.9695281982421875,-0.082183837890625,-0.1330108642578125
1638754211718107100,9.998107177734376,-1.0209197998046875,-0.0866241455078125,-0.1499176025390625
1638754211728070100,10.008070068359375,-1.0622711181640625,-0.0872039794921875,-0.1518402099609375
1638754211738033200,10.018033203125,-1.07220458984375,-0.0889892578125,-0.149505615234375
1638754211747997000,10.027996826171876,-1.052215576171875,-0.0933990478515625,-0.144195556640625
1638754211757960200,10.037960205078125,-1.0133514404296875,-0.1028289794921875,-0.1360931396484375
1638754211767923200,10.047923095703124,-0.9756927490234375,-0.110595703125,-0.14080810546875
1638754211777886200,10.05788623046875,-0.963226318359375,-0.110076904296875,-0.1502685546875
1638754211787850200,10.067850341796875,-0.9898223876953125,-0.0992279052734375,-0.1550445556640625
1638754211797813200,10.077813232421875,-1.0328521728515625,-0.0883331298828125,-0.1548614501953125
1638754211807776300,10.0877763671875,-1.0562591552734375,-0.0794830322265625,-0.146026611328125
1638754211817740300,10.097740234375,-1.05126953125,-0.07684326171875,-0.1400604248046875
1638754211827703300,10.107703369140625,-1.026885986328125,-0.0781707763671875,-0.143768310546875
1638754211837666000,10.117666015625,-1.0017242431640625,-0.0798492431640625,-0.154266357421875
1638754211847630000,10.127630126953125,-0.9907684326171875,-0.0791473388671875,-0.1622772216796875
1638754211857593000,10.137593017578125,-0.995574951171875,-0.0760040283203125,-0.161590576171875
1638754211867556000,10.14755615234375,-1.0062408447265625,-0.0688934326171875,-0.15545654296875
1638754211877520100,10.15752001953125,-1.0115966796875,-0.05859375,-0.1469879150390625
1638754211887483100,10.167483154296875,-1.0086517333984375,-0.0444793701171875,-0.1383056640625
1638754211897446100,10.177446044921876,-0.9994049072265625,-0.0303955078125,-0.1323089599609375
1638754211907409200,10.1874091796875,-0.98419189453125,-0.0209197998046875,-0.1238555908203125
1638754211917373200,10.197373291015625,-0.9715423583984375,-0.0153656005859375,-0.1161041259765625
1638754211927336200,10.207336181640626,-0.9609375,-0.0142364501953125,-0.110931396484375
1638754211937299200,10.21729931640625,-0.9552001953125,-0.01556396484375,-0.1000518798828125
1638754211947263200,10.22726318359375,-0.9565887451171875,-0.021270751953125,-0.0884552001953125
1638754211957226000,10.23722607421875,-0.96563720703125,-0.032745361328125,-0.0760650634765625
1638754211967189000,10.24718896484375,-0.97344970703125,-0.0490875244140625,-0.066802978515625
1638754211977153000,10.257153076171875,-0.9760894775390625,-0.059967041015625,-0.0623626708984375
1638754211987116000,10.267115966796876,-0.9760589599609375,-0.064300537109375,-0.066619873046875
1638754211997079000,10.2770791015625,-0.97418212890625,-0.062713623046875,-0.07867431640625
1638754212007042000,10.2870419921875,-0.9747314453125,-0.06103515625,-0.0924224853515625
1638754212017006000,10.297006103515624,-0.9796295166015625,-0.062408447265625,-0.10345458984375
1638754212026969000,10.306968994140625,-0.9902801513671875,-0.0648193359375,-0.109619140625
1638754212036932000,10.31693212890625,-1.004486083984375,-0.067230224609375,-0.11285400390625
1638754212046895900,10.326895751953124,-1.011993408203125,-0.067138671875,-0.115234375
1638754212056859100,10.336859130859375,-1.01220703125,-0.0640716552734375,-0.1177978515625
1638754212066822100,10.346822265625,-1.0079345703125,-0.06201171875,-0.1202239990234375
1638754212076786000,10.356785888671874,-0.99969482421875,-0.0624847412109375,-0.1217193603515625
1638754212086749200,10.366749267578125,-0.9927520751953125,-0.0664520263671875,-0.1195831298828125
1638754212096712200,10.376712158203125,-0.9890594482421875,-0.0701751708984375,-0.116668701171875
1638754212106676200,10.38667626953125,-0.9859771728515625,-0.070281982421875,-0.114501953125
1638754212116639200,10.39663916015625,-0.981781005859375,-0.0660858154296875,-0.1099395751953125
1638754212126602200,10.406602294921875,-0.9778900146484375,-0.05767822265625,-0.103515625
1638754212136565200,10.416565185546874,-0.972869873046875,-0.05029296875,-0.1061553955078125
1638754212146529300,10.426529296875,-0.971954345703125,-0.045074462890625,-0.1179656982421875
1638754212156492000,10.436491943359375,-0.9781646728515625,-0.0446319580078125,-0.1203765869140625
1638754212166455000,10.446455078125,-0.9828948974609375,-0.047637939453125,-0.1143798828125
1638754212176419000,10.456419189453126,-0.9875030517578125,-0.0482177734375,-0.106353759765625
1638754212186382000,10.466382080078125,-0.9967041015625,-0.0520477294921875,-0.1090545654296875
1638754212196345000,10.476344970703124,-1.00592041015625,-0.0539703369140625,-0.11260986328125
1638754212206309000,10.48630908203125,-1.008514404296875,-0.0498199462890625,-0.1071929931640625
1638754212216272100,10.496272216796875,-0.9955291748046875,-0.0460052490234375,-0.11016845703125
1638754212226235100,10.506235107421874,-0.97259521484375,-0.0496978759765625,-0.1162261962890625
1638754212236199200,10.51619921875,-0.9610748291015625,-0.0608978271484375,-0.1152191162109375
1638754212246162200,10.526162109375,-0.966217041015625,-0.0728607177734375,-0.1208648681640625
1638754212256125200,10.536125244140624,-0.9873199462890625,-0.0847625732421875,-0.134063720703125
1638754212266088000,10.546087890625,-1.020111083984375,-0.0965576171875,-0.1375732421875
1638754212276052000,10.556052001953125,-1.046630859375,-0.106536865234375,-0.1329193115234375
1638754212286015000,10.566014892578124,-1.0498199462890625,-0.11895751953125,-0.136566162109375
1638754212295978000,10.57597802734375,-1.0400390625,-0.1255950927734375,-0.1460418701171875
1638754212305942000,10.58594189453125,-1.0303497314453125,-0.128143310546875,-0.1519012451171875
1638754212315905000,10.595905029296874,-1.0284576416015625,-0.1298980712890625,-0.1514739990234375
1638754212325868000,10.605867919921875,-1.029937744140625,-0.12762451171875,-0.137786865234375
1638754212335832000,10.61583203125,-1.029754638671875,-0.1234130859375,-0.1285858154296875
1638754212345795000,10.625795166015624,-1.02197265625,-0.1189117431640625,-0.13275146484375
1638754212355758000,10.635758056640626,-1.0111236572265625,-0.1075897216796875,-0.1377716064453125
1638754212365722000,10.64572216796875,-1.0032501220703125,-0.0907440185546875,-0.1381988525390625
1638754212375684900,10.655684814453124,-0.99578857421875,-0.0724945068359375,-0.1313629150390625
1638754212385648000,10.665648193359376,-0.9832611083984375,-0.05621337890625,-0.120849609375
1638754212395612000,10.67561181640625,-0.9684600830078125,-0.040863037109375,-0.11956787109375
1638754212405575000,10.685574951171875,-0.9566802978515625,-0.02569580078125,-0.1311187744140625
1638754212415538200,10.6955380859375,-0.9589080810546875,-0.010009765625,-0.1480255126953125
1638754212425501200,10.705501220703125,-0.97833251953125,0.006195068359375,-0.1589508056640625
1638754212435465200,10.71546533203125,-1.013885498046875,0.01507568359375,-0.1533050537109375
1638754212445428200,10.72542822265625,-1.0457611083984375,0.00927734375,-0.1397857666015625
1638754212455391200,10.73539111328125,-1.047088623046875,-0.000457763671875,-0.1262664794921875
1638754212465355300,10.745355224609375,-1.0216522216796875,-0.010345458984375,-0.11029052734375
1638754212475318300,10.755318359375,-0.990997314453125,-0.02447509765625,-0.1022491455078125
1638754212485281000,10.765281005859375,-0.9703826904296875,-0.0429840087890625,-0.1018218994140625
1638754212495245000,10.7752451171875,-0.9591522216796875,-0.055694580078125,-0.09832763671875
1638754212505208000,10.7852080078125,-0.9574432373046875,-0.065704345703125,-0.084320068359375
1638754212515171000,10.795171142578125,-0.962158203125,-0.0721435546875,-0.0750885009765625
1638754212525135000,10.805135009765625,-0.970794677734375,-0.075469970703125,-0.076904296875
1638754212535098000,10.81509814453125,-0.9788360595703125,-0.0753936767578125,-0.084259033203125
1638754212545061000,10.82506103515625,-0.98382568359375,-0.070770263671875,-0.0946197509765625
1638754212555025200,10.835025146484375,-0.987548828125,-0.0677947998046875,-0.0997161865234375
1638754212564988200,10.84498828125,-0.993682861328125,-0.0690155029296875,-0.10296630859375
1638754212574951200,10.854951171875,-0.9996185302734375,-0.070404052734375,-0.107696533203125
1638754212584914200,10.8649140625,-1.0023956298828125,-0.07159423828125,-0.1122283935546875
1638754212594878200,10.874878173828124,-1.00079345703125,-0.0713958740234375,-0.1149749755859375
1638754212604841000,10.884841064453125,-0.997222900390625,-0.0724029541015625,-0.113861083984375
1638754212614804000,10.894803955078125,-0.9901885986328125,-0.0745849609375,-0.1115875244140625
1638754212624768000,10.90476806640625,-0.983428955078125,-0.0774078369140625,-0.10931396484375
1638754212634731000,10.91473095703125,-0.980987548828125,-0.0749053955078125,-0.106414794921875
1638754212644694000,10.924694091796875,-0.980865478515625,-0.067840576171875,-0.1031646728515625
1638754212654658000,10.934657958984374,-0.9811859130859375,-0.059173583984375,-0.097625732421875
1638754212664621000,10.94462109375,-0.981231689453125,-0.0523834228515625,-0.0924530029296875
1638754212674584000,10.954583984375,-0.977935791015625,-0.0474090576171875,-0.092010498046875
1638754212684548000,10.964548095703124,-0.9706878662109375,-0.0438232421875,-0.0940704345703125
1638754212694511000,10.974510986328125,-0.96209716796875,-0.03973388671875,-0.0970916748046875
1638754212704474000,10.98447412109375,-0.9571990966796875,-0.034423828125,-0.100006103515625
1638754212714438100,10.994438232421874,-0.961639404296875,-0.0320281982421875,-0.1082916259765625
1638754212724401000,11.00440087890625,-0.9732208251953125,-0.03350830078125,-0.1247406005859375
1638754212734364200,11.0143642578125,-0.9895172119140625,-0.039947509765625,-0.131378173828125
1638754212744328000,11.024327880859374,-1.0025177001953125,-0.0513916015625,-0.1237335205078125
1638754212754291000,11.034291015625,-1.0072479248046875,-0.065521240234375,-0.116363525390625
1638754212764254200,11.044254150390625,-1.0106048583984375,-0.0785369873046875,-0.11553955078125
1638754212774217200,11.05421728515625,-1.0140228271484375,-0.0845794677734375,-0.1211700439453125
1638754212784181000,11.064180908203125,-1.0177764892578125,-0.0780029296875,-0.12103271484375
1638754212794144300,11.074144287109375,-1.014923095703125,-0.0676116943359375,-0.11224365234375
1638754212804107300,11.084107177734374,-0.9940643310546875,-0.0643310546875,-0.1065521240234375
1638754212814071300,11.0940712890625,-0.9669342041015625,-0.0653533935546875,-0.1130828857421875
1638754212824034300,11.104034423828125,-0.95947265625,-0.075836181640625,-0.1246795654296875
1638754212833997000,11.1139970703125,-0.9774169921875,-0.0895843505859375,-0.1376953125
1638754212843961000,11.123961181640626,-1.0048828125,-0.0990753173828125,-0.150390625
1638754212853924000,11.133924072265625,-1.027862548828125,-0.1050567626953125,-0.15234375
1638754212863887000,11.14388720703125,-1.041015625,-0.1082000732421875,-0.146484375
1638754212873851100,11.15385107421875,-1.0458221435546875,-0.11712646484375,-0.1554107666015625
1638754212883814100,11.163814208984375,-1.04534912109375,-0.1273956298828125,-0.1755218505859375
1638754212893777200,11.173777099609374,-1.041412353515625,-0.1311492919921875,-0.1905975341796875
1638754212903741200,11.1837412109375,-1.0366058349609375,-0.1283111572265625,-0.1969146728515625
1638754212913704200,11.1937041015625,-1.035797119140625,-0.122467041015625,-0.1891021728515625
1638754212923667200,11.203667236328124,-1.040252685546875,-0.11578369140625,-0.168792724609375
1638754212933631200,11.21363134765625,-1.0392608642578125,-0.1087188720703125,-0.148040771484375
1638754212943594000,11.223593994140625,-1.02752685546875,-0.0981292724609375,-0.1414947509765625
1638754212953557000,11.233556884765624,-1.0099639892578125,-0.0859832763671875,-0.14404296875
1638754212963521000,11.24352099609375,-0.99383544921875,-0.06915283203125,-0.144500732421875
1638754212973484000,11.253484130859375,-0.97747802734375,-0.0501708984375,-0.1415863037109375
1638754212983447000,11.263447021484374,-0.96063232421875,-0.0379486083984375,-0.1363983154296875
1638754212993411000,11.2734111328125,-0.944305419921875,-0.024169921875,-0.1281280517578125
1638754213003374000,11.2833740234375,-0.93646240234375,-0.0034637451171875,-0.120880126953125
1638754213013337000,11.293337158203125,-0.9524993896484375,0.0178070068359375,-0.1273651123046875
1638754213023301000,11.303301025390626,-0.988006591796875,0.026092529296875,-0.1263427734375
1638754213033264000,11.31326416015625,-1.011993408203125,0.0131988525390625,-0.1184844970703125
1638754213043227100,11.32322705078125,-1.0012359619140625,-0.0020751953125,-0.1063385009765625
1638754213053191200,11.333191162109374,-0.9808349609375,-0.018035888671875,-0.088043212890625
1638754213063154000,11.34315380859375,-0.96832275390625,-0.0420379638671875,-0.0821685791015625
1638754213073117000,11.353116943359375,-0.9576416015625,-0.058319091796875,-0.0914306640625
1638754213083080000,11.363079833984376,-0.9582061767578125,-0.0585784912109375,-0.086456298828125
1638754213093044000,11.3730439453125,-0.9674835205078125,-0.0577850341796875,-0.0892486572265625
1638754213103007000,11.383007080078125,-0.986114501953125,-0.065521240234375,-0.1002655029296875
1638754213112970200,11.39297021484375,-0.995941162109375,-0.074066162109375,-0.1029205322265625
1638754213122934000,11.40293408203125,-0.9936676025390625,-0.0761871337890625,-0.1132354736328125
1638754213132897000,11.41289697265625,-0.9889373779296875,-0.0794219970703125,-0.1266937255859375
1638754213142860300,11.4228603515625,-0.990570068359375,-0.082275390625,-0.1317291259765625
1638754213152824000,11.432823974609375,-1.0028839111328125,-0.0841217041015625,-0.1376800537109375
1638754213162787000,11.442787109375,-1.0116424560546875,-0.0843048095703125,-0.1410369873046875
1638754213172750000,11.45275,-1.0123748779296875,-0.0848236083984375,-0.13494873046875
1638754213182714000,11.462714111328125,-1.0023345947265625,-0.090576171875,-0.13031005859375
1638754213192677000,11.472677001953125,-0.99005126953125,-0.098358154296875,-0.1293487548828125
1638754213202640100,11.48264013671875,-0.9835357666015625,-0.101715087890625,-0.1329498291015625
1638754213212604200,11.492604248046876,-0.98663330078125,-0.0980072021484375,-0.13616943359375
1638754213222567200,11.502567138671875,-0.99676513671875,-0.08892822265625,-0.1361083984375
1638754213232530200,11.5125302734375,-1.00616455078125,-0.0781707763671875,-0.129608154296875
1638754213242494200,11.522494140625,-1.00830078125,-0.0683441162109375,-0.122772216796875
1638754213252457200,11.532457275390625,-1.001434326171875,-0.0647125244140625,-0.12530517578125
1638754213262420200,11.542420166015624,-0.991943359375,-0.066131591796875,-0.1309356689453125
1638754213272384300,11.55238427734375,-0.984100341796875,-0.0648956298828125,-0.1363677978515625
1638754213282347300,11.56234716796875,-0.9879608154296875,-0.0619659423828125,-0.1389007568359375
1638754213292310000,11.57231005859375,-1.0011138916015625,-0.0579376220703125,-0.1371307373046875
1638754213302274000,11.582274169921876,-1.01373291015625,-0.0482330322265625,-0.1341400146484375
1638754213312237000,11.592237060546875,-1.018951416015625,-0.0413665771484375,-0.1319732666015625
1638754213322200000,11.602199951171874,-1.0133514404296875,-0.041107177734375,-0.130279541015625
1638754213332164000,11.6121640625,-1.0051116943359375,-0.0497894287109375,-0.1285858154296875
1638754213342127000,11.622127197265625,-0.99658203125,-0.0603790283203125,-0.1284637451171875
1638754213352090000,11.632090087890624,-0.9892425537109375,-0.068328857421875,-0.1266326904296875
1638754213362054100,11.64205419921875,-0.9859771728515625,-0.0709686279296875,-0.1214752197265625
1638754213372017200,11.65201708984375,-0.9810791015625,-0.071014404296875,-0.116455078125
1638754213381980200,11.661980224609374,-0.973846435546875,-0.067962646484375,-0.1105194091796875
1638754213391944200,11.671944091796876,-0.9688262939453125,-0.0675201416015625,-0.108062744140625
1638754213401907200,11.6819072265625,-0.9683380126953125,-0.0677947998046875,-0.1063079833984375
1638754213411870000,11.691869873046874,-0.97296142578125,-0.0681304931640625,-0.10858154296875
1638754213421834000,11.701833984375,-0.9807586669921875,-0.0672454833984375,-0.1113433837890625
1638754213431797000,11.711796875,-0.9884033203125,-0.065185546875,-0.11431884765625
1638754213441760000,11.721760009765624,-0.9941864013671875,-0.0628662109375,-0.1168670654296875
1638754213451724000,11.73172412109375,-0.9935302734375,-0.0640106201171875,-0.12103271484375
1638754213461687000,11.74168701171875,-0.9898834228515625,-0.071044921875,-0.1259918212890625
1638754213471650000,11.751650146484375,-0.9857025146484375,-0.0757904052734375,-0.1307373046875
1638754213481614000,11.761614013671876,-0.98834228515625,-0.0819549560546875,-0.1345977783203125
1638754213491577000,11.7715771484375,-0.997802734375,-0.0917816162109375,-0.1358795166015625
1638754213501540000,11.7815400390625,-1.006591796875,-0.0946807861328125,-0.1374664306640625
1638754213511504100,11.791504150390624,-1.0107879638671875,-0.09393310546875,-0.137237548828125
1638754213521467100,11.801467041015625,-1.00897216796875,-0.0928802490234375,-0.136566162109375
1638754213531430000,11.811429931640625,-1.004486083984375,-0.0940704345703125,-0.1395416259765625
1638754213541394000,11.821393798828124,-1.0010986328125,-0.0888214111328125,-0.1394805908203125
1638754213551357000,11.83135693359375,-1.005401611328125,-0.079437255859375,-0.1337127685546875
1638754213561320200,11.8413203125,-1.0101470947265625,-0.07220458984375,-0.1296234130859375
1638754213571284000,11.851283935546874,-1.0128631591796875,-0.0673065185546875,-0.1291351318359375
1638754213581247000,11.8612470703125,-1.0113067626953125,-0.0662384033203125,-0.132171630859375
1638754213591210200,11.871210205078125,-1.0025177001953125,-0.06396484375,-0.1330108642578125
1638754213601174000,11.881174072265624,-0.993804931640625,-0.06219482421875,-0.1367645263671875
1638754213611137000,11.891136962890625,-0.9908447265625,-0.060272216796875,-0.1371917724609375
1638754213621100300,11.901100341796875,-0.9896087646484375,-0.0573883056640625,-0.132781982421875
1638754213631064000,11.91106396484375,-0.9882049560546875,-0.0556488037109375,-0.1289825439453125
1638754213641027300,11.92102734375,-0.986297607421875,-0.055694580078125,-0.1263427734375
1638754213650990000,11.930989990234375,-0.985626220703125,-0.0589599609375,-0.1236419677734375
1638754213660954000,11.9409541015625,-0.98577880859375,-0.06500244140625,-0.119293212890625
1638754213670917000,11.950917236328126,-0.988739013671875,-0.070098876953125,-0.117919921875
1638754213680880000,11.960880126953125,-0.9925994873046875,-0.072418212890625,-0.11309814453125
1638754213690844200,11.97084423828125,-0.991790771484375,-0.0715789794921875,-0.112640380859375
1638754213700807200,11.98080712890625,-0.9886016845703125,-0.0724334716796875,-0.11541748046875
1638754213710770200,11.990770263671875,-0.9851226806640625,-0.0746307373046875,-0.1179656982421875
1638754213720734200,12.000734130859374,-0.9842376708984375,-0.076873779296875,-0.121368408203125
1638754213730697200,12.010697265625,-0.9886627197265625,-0.0769805908203125,-0.1235809326171875
1638754213740660200,12.02066015625,-0.9953460693359375,-0.075103759765625,-0.1253814697265625
1638754213750624300,12.030624267578125,-1.001190185546875,-0.0718536376953125,-0.12628173828125
1638754213760587000,12.0405869140625,-1.003631591796875,-0.0705413818359375,-0.126922607421875
1638754213770550000,12.050550048828125,-1.00164794921875,-0.070953369140625,-0.1300201416015625
1638754213780514000,12.06051416015625,-0.997314453125,-0.072723388671875,-0.129150390625
1638754213790477000,12.07047705078125,-0.9940643310546875,-0.07452392578125,-0.128143310546875
1638754213800440000,12.080440185546875,-0.993682861328125,-0.07525634765625,-0.12542724609375
1638754213810404000,12.090404052734375,-0.993438720703125,-0.075347900390625,-0.1244964599609375
1638754213820367000,12.1003671875,-0.99359130859375,-0.074462890625,-0.1247711181640625
1638754213830330000,12.110330078125,-0.99749755859375,-0.0727691650390625,-0.1230010986328125
1638754213840294100,12.120294189453125,-0.99969482421875,-0.073333740234375,-0.1244964599609375
1638754213850257200,12.130257080078126,-0.9999847412109375,-0.07305908203125,-0.1241455078125
1638754213860220200,12.14022021484375,-0.99969482421875,-0.0714111328125,-0.124420166015625
1638754213870184200,12.15018408203125,-0.9978179931640625,-0.0702667236328125,-0.1233978271484375
1638754213880147000,12.16014697265625,-0.9956817626953125,-0.0678863525390625,-0.1222991943359375
1638754213890110000,12.17010986328125,-0.9922943115234375,-0.0669708251953125,-0.1202392578125
1638754213900074000,12.180073974609375,-0.9885711669921875,-0.0677947998046875,-0.1182708740234375
1638754213910037000,12.190037109375,-0.984832763671875,-0.0696868896484375,-0.1194915771484375
1638754213920000000,12.2,-0.982452392578125,-0.069244384765625,-0.1191558837890625
1638754213929964000,12.209964111328125,-0.9869842529296875,-0.068572998046875,-0.1207275390625
1638754213939927000,12.219927001953126,-0.99444580078125,-0.0697784423828125,-0.124755859375
1638754213949890000,12.22989013671875,-0.99993896484375,-0.069000244140625,-0.1248626708984375
1638754213959854000,12.23985400390625,-1.0005340576171875,-0.0716400146484375,-0.128814697265625
1638754213969817000,12.249817138671874,-1.0013427734375,-0.0758056640625,-0.1296234130859375
1638754213979780000,12.259780029296875,-0.9945526123046875,-0.072998046875,-0.1208648681640625
1638754213989744000,12.269744140625,-0.9883880615234375,-0.070831298828125,-0.1201324462890625
1638754213999707000,12.279706787109374,-0.9894561767578125,-0.0704498291015625,-0.11932373046875
1638754214009670100,12.289670166015625,-0.994354248046875,-0.0662841796875,-0.1140594482421875
1638754214019634000,12.299634033203125,-0.9991912841796875,-0.064361572265625,-0.1180267333984375
1638754214029597000,12.309596923828124,-0.9983978271484375,-0.0658721923828125,-0.1182403564453125
1638754214039561200,12.319561279296876,-0.9947052001953125,-0.0675048828125,-0.1184539794921875
1638754214049524200,12.329524169921875,-0.9889373779296875,-0.0662689208984375,-0.1240234375
1638754214059487200,12.3394873046875,-0.989654541015625,-0.065887451171875,-0.1249542236328125
1638754214069451300,12.349451171875,-0.996307373046875,-0.06475830078125,-0.1230621337890625
1638754214079414300,12.359414306640625,-1.0015716552734375,-0.062347412109375,-0.1214447021484375
1638754214089377300,12.369377197265624,-1.0012359619140625,-0.062255859375,-0.120208740234375
1638754214099341300,12.37934130859375,-0.999786376953125,-0.0650177001953125,-0.119384765625
1638754214109304300,12.38930419921875,-0.9959716796875,-0.0664215087890625,-0.118682861328125
1638754214119267600,12.399267578125,-0.9946136474609375,-0.0682220458984375,-0.1190338134765625
1638754214129231400,12.4092314453125,-0.996551513671875,-0.0701141357421875,-0.1190338134765625
1638754214139194400,12.4191943359375,-0.996429443359375,-0.0676116943359375,-0.11602783203125
1638754214149157400,12.429157470703124,-0.9947967529296875,-0.0656585693359375,-0.1146392822265625
1638754214159121200,12.43912109375,-0.99688720703125,-0.07232666015625,-0.12506103515625
1638754214169084400,12.44908447265625,-0.995819091796875,-0.074737548828125,-0.1201934814453125
1638754214179047400,12.45904736328125,-0.9904022216796875,-0.0701446533203125,-0.11798095703125
1638754214189011500,12.469011474609376,-0.9904022216796875,-0.0682830810546875,-0.1182098388671875
1638754214198974500,12.478974365234375,-0.99273681640625,-0.0693817138671875,-0.1115875244140625
1638754214208937500,12.4889375,-0.99468994140625,-0.068206787109375,-0.1096649169921875
1638754214218901500,12.498901611328124,-0.994232177734375,-0.066558837890625,-0.11395263671875
1638754214228864500,12.508864501953125,-0.994140625,-0.068450927734375,-0.1144256591796875
1638754214238827300,12.5188271484375,-0.9934539794921875,-0.0703887939453125,-0.11285400390625
1638754214248791600,12.52879150390625,-0.9926300048828125,-0.0714874267578125,-0.114105224609375
1638754214258754300,12.53875439453125,-0.9935150146484375,-0.072021484375,-0.1134796142578125
1638754214268717300,12.54871728515625,-0.995758056640625,-0.06982421875,-0.11346435546875
1638754214278681300,12.558681396484374,-0.99542236328125,-0.0697174072265625,-0.1142425537109375
1638754214288644400,12.568644287109375,-0.992584228515625,-0.0681304931640625,-0.113372802734375
1638754214298607400,12.578607421875,-0.99249267578125,-0.0668487548828125,-0.113037109375
1638754214308571400,12.5885712890625,-0.9931793212890625,-0.065887451171875,-0.1138763427734375
1638754214318534400,12.598534423828125,-0.9954376220703125,-0.0661468505859375,-0.113128662109375
1638754214328497400,12.608497314453125,-0.997772216796875,-0.0661773681640625,-0.114776611328125
1638754214338461400,12.61846142578125,-0.9979095458984375,-0.0650787353515625,-0.11431884765625
1638754214348424400,12.628424560546875,-0.99676513671875,-0.0657501220703125,-0.115020751953125
1638754214358388500,12.638388427734375,-0.994140625,-0.0653839111328125,-0.1144866943359375
1638754214368351500,12.6483515625,-0.9930419921875,-0.0645904541015625,-0.1125946044921875
1638754214378314200,12.658314208984375,-0.99359130859375,-0.065948486328125,-0.113006591796875
1638754214388278300,12.6682783203125,-0.99395751953125,-0.0662078857421875,-0.1122894287109375
1638754214398241300,12.6782412109375,-0.9960784912109375,-0.066680908203125,-0.112701416015625
1638754214408204300,12.688204345703125,-0.9954681396484375,-0.066192626953125,-0.112945556640625
1638754214418168300,12.698168212890625,-0.993743896484375,-0.06475830078125,-0.1121063232421875
1638754214428131300,12.70813134765625,-0.9904937744140625,-0.0646209716796875,-0.110198974609375
1638754214438094300,12.71809423828125,-0.9875030517578125,-0.0648651123046875,-0.108673095703125
