time,seconds_elapsed,z,y,x
1638746295269128400,0.08412841796875,0.6345686538815498,-0.8103869930803775,1.7075887846522033
1638746295279119400,0.094119384765625,1.8710884711563587,-0.5145487742722035,1.3553756215408443
1638746295289110300,0.1041103515625,2.9363872138947245,-0.25817455084621904,0.7868038729190826
1638746295299100200,0.11410009765625,2.7096359753161665,-0.12108370944857597,-0.09310863793864846
1638746295309091000,0.124091064453125,2.5680109976202248,-0.19974282014369962,-0.9629879766903817
1638746295319082200,0.134082275390625,1.9987515589952467,-0.3303276406481862,-0.34827984225042163
1638746295329072000,0.144072021484375,1.3060258996993304,-0.4169599221795797,0.6044173343110829
1638746295339063000,0.15406298828125,0.6937421428620815,-0.03586626315116882,1.4274572535417973
1638746295349054200,0.16405419921875,0.09983692328035831,0.6798065564900636,1.9513577935270965
1638746295359044400,0.17404443359375,-0.10158581277430057,1.229139643895626,2.0085233036860823
1638746295369034200,0.1840341796875,0.13419570447802542,1.274958853523433,1.755170473907888
1638746295379025200,0.194025146484375,0.8896446541905403,0.9475161206617951,1.5248073284424841
1638746295389016000,0.20401611328125,1.6291992846786976,0.519868507990241,1.2770762840688228
1638746295399007200,0.21400732421875,2.006425746884942,0.22810206866562366,0.9139195560082792
1638746295408997400,0.223997314453125,2.000496941357851,0.05199351434856653,0.6977097313188017
1638746295418988300,0.23398828125,1.8191876035273074,-0.06711012719869613,0.5762535352960229
1638746295428979200,0.243979248046875,1.720443736180663,-0.22738427578508852,0.5352385110795498
1638746295438970400,0.253970458984375,1.6793863341271877,-0.28066987577080726,0.5784425697728991
1638746295448960300,0.263960205078125,1.70000885091722,-0.22302461927086115,0.49329307414516804
1638746295458951200,0.273951171875,1.48575702842772,-0.1535544849425554,0.24301468337625265
1638746295468942000,0.283942138671875,0.7931132021963596,0.02081803936213255,0.0023563173351809383
1638746295478933200,0.293933349609375,0.057338090246915815,0.47148090917915103,-0.2673976121457293
1638746295488923400,0.30392333984375,-0.620616116374731,0.5956786589950323,-0.3586794365160167
1638746295498914300,0.313914306640625,-0.9152917211443186,0.13297756085991858,-0.11579422473832965
1638746295508905200,0.3239052734375,-0.7524374929368496,-0.31154432198405263,0.15879004750847817
1638746295518896400,0.333896484375,-0.2753051338672638,-0.33098201290369034,0.2628061561696231
1638746295528886300,0.34388623046875,0.4702262329429388,-0.2562415369570255,0.3394707320466637
1638746295538877200,0.353877197265625,1.2553133650720119,-0.19661796612143514,0.5057832840144634
1638746295548868000,0.3638681640625,2.0205197386890648,-0.1239192251354456,0.6593656798772514
1638746295558859300,0.373859375,2.5207564944922924,0.0952902197614312,0.5752553180389106
1638746295568849400,0.383849365234375,2.508718850696087,0.2748842781066894,0.5335352142930031
1638746295578840300,0.39384033203125,2.021097830837965,0.1291182550832629,0.8483997667409479
1638746295588831200,0.403831298828125,1.4661422273755074,-0.006857026287913322,0.9012542818330228
1638746295598822400,0.413822509765625,1.233354631242156,-0.03362286813855171,0.8531006379082798
1638746295608812300,0.423812255859375,1.3329665135949849,0.051937107986211775,1.0519181599006056
1638746295618803200,0.43380322265625,1.5302800607651472,0.16862696639001368,1.4121389806397258
1638746295628794000,0.443794189453125,1.7541595432996748,0.24471476529240607,1.86886670345366
1638746295638785300,0.453785400390625,1.9331465756624935,0.2969020486474037,2.2977787831030785
1638746295648775400,0.463775390625,1.884631258818507,0.35066169588565826,2.7154142664566634
1638746295658766300,0.473766357421875,1.9234744919538498,0.5987532441347837,2.944495409287512
1638746295668757200,0.48375732421875,2.2037088989168403,0.7301245388418436,3.1776725892603395
1638746295678748400,0.49374853515625,2.4718144766688344,0.6929927857995033,3.4811744745641944
1638746295688738300,0.50373828125,2.5870921301871537,0.693892364987731,3.7019910623967647
1638746295698729200,0.513729248046875,2.4441338580608365,0.6288946998983621,3.793375214630365
1638746295708720000,0.52372021484375,2.149414414149523,0.7158151507213711,3.6513296734347938
1638746295718711000,0.5337109375,2.037476134186983,0.9205816442459821,3.419495724764466
1638746295728701400,0.543701416015625,2.0087059667766094,1.0172042816549538,3.469704986044764
1638746295738692400,0.5536923828125,2.1898335182994604,0.9706576345354319,3.671315353626013
1638746295748683300,0.563683349609375,2.867097989091277,0.8004895761832594,3.614767536973953
1638746295758674200,0.573674072265625,3.924333836883306,0.5353624297201633,3.1971395062744614
1638746295768664300,0.583664306640625,4.616386711484194,0.08215045994222164,2.7278072995617983
1638746295778655200,0.5936552734375,4.713191135200858,-0.15971534565985201,2.2195874360501766
1638746295788646100,0.603646240234375,4.248449471148848,-0.27065029379874467,2.142611017744988
1638746295798637000,0.613636962890625,3.167342918425798,-0.2902361610174179,2.433291123137623
1638746295808627500,0.62362744140625,1.8068547761768101,0.29633856954574583,2.8729303485065696
1638746295818618400,0.633618408203125,0.7622329107642173,0.5574240394026041,4.054306955230236
1638746295828609300,0.643609375,0.11062252118885517,0.6791250039666891,4.63575075264573
1638746295838600200,0.65360009765625,0.015175941821932791,0.6324781113430857,4.239491380928457
1638746295848590000,0.663590087890625,0.5493289957523345,-0.012926117068529128,3.371667221140861
1638746295858581200,0.673581298828125,1.7806681955188512,-0.5939569497689604,2.1117710583232343
1638746295868572200,0.683572265625,3.0490473783910272,-1.0352043409869074,0.6719435680299997
1638746295878563000,0.69356298828125,3.6752930250853297,-1.3313856741443275,0.0010243746116757391
1638746295888553200,0.70355322265625,3.5351235068947076,-0.8512526719540358,-0.29790231173112985
1638746295898544400,0.71354443359375,2.5501918478131294,-0.4242489101439714,0.8229755487576127
1638746295908535300,0.723535400390625,0.7501151874691248,0.2134650560259819,1.9984120979078113
1638746295918526200,0.733526123046875,-0.9096265349894761,0.9771695006474852,1.845252457501739
1638746295928516000,0.74351611328125,-2.0117606781721116,1.1688964798569679,1.2568719926908611
1638746295938507300,0.75350732421875,-2.3184756803035733,0.5412836364626884,0.20217150859534738
1638746295948498200,0.763498291015625,-1.8281430633991955,-0.2815715007856488,-1.3488316067248582
1638746295958489000,0.773489013671875,-0.9174889389276504,-0.6922963279679417,-2.800929526656866
1638746295968479200,0.783479248046875,0.3244821294903755,-0.5756316040053964,-3.6795033362567424
1638746295978470400,0.793470458984375,1.9431155964910982,0.5046311913698911,-3.9672114401012655
1638746295988461300,0.80346142578125,3.5685464685469865,1.8769059252634643,-3.3780048997297882
1638746295998452200,0.8134521484375,4.7616070833235975,3.1502500370666384,-2.5628786031678317
1638746296008442000,0.823442138671875,4.939751819643378,3.946565542435646,-2.342066691510379
1638746296018433300,0.833433349609375,4.091988158848881,3.955934551544487,-2.2931357796028253
1638746296028424200,0.843424072265625,2.7326205450624226,3.1191750998452306,-2.891091151358187
1638746296038415000,0.8534150390625,1.253748015451431,2.548023563863337,-3.8511490659460423
1638746296048405200,0.8634052734375,0.08329203119277953,1.943446435880661,-3.9026378456428645
1638746296058396400,0.873396484375,-0.7407482241868972,1.9810233023419974,-3.0903608010321855
1638746296068387300,0.88338720703125,-1.8130922092616557,3.2743346818968653,-1.6766792671255766
1638746296078378200,0.893378173828125,-3.4248119513511655,4.891288817508518,-0.09863003170862793
1638746296088368000,0.9033681640625,-4.967720023021101,5.925798746490478,0.6672473730377853
1638746296098359300,0.913359375,-5.725361514341831,5.219245052850246,0.6166453130476176
1638746296108350200,0.92335009765625,-5.226898197951913,3.572769931460917,-0.29671544003412126
1638746296118340400,0.93334033203125,-3.8396974053442476,2.2318606421679257,-0.9616723640471696
1638746296128331300,0.943331298828125,-2.3276596882343292,1.6844111765518783,-0.818549914335087
1638746296138322400,0.953322509765625,-1.1137836644440888,2.0998570409066972,-0.9869861073933541
1638746296148313300,0.963313232421875,-0.6145096161931752,3.005423925241828,-1.1301479392677545
1638746296158304300,0.97330419921875,-2.613101016190648,2.364519638597965,-3.0118139185398816
1638746296168294100,0.983294189453125,-11.69196222681999,-1.4777004170916974,-9.256313873031734
1638746296178285300,0.993285400390625,-29.159328056001662,-5.192464013430476,-20.59563579736948
1638746296188276200,1.003276123046875,-50.204603809881206,-5.651389100158214,-21.71858885669708
1638746296198266400,1.013266357421875,-40.34813384017944,-3.275791894967854,-9.144728644290566
1638746296208257300,1.02325732421875,-15.953136154985426,-3.386751685287058,-1.2544612782873212
1638746296218248400,1.03324853515625,-2.0126929905861615,-1.3307083594046532,0.7162751694485545
1638746296228239400,1.0432392578125,7.159816225555539,-1.488511587832868,1.6779292671866715
1638746296238229200,1.053229248046875,10.719296759593487,-2.1704858437508343,1.822212358175963
1638746296248220200,1.06322021484375,10.103741433739662,-1.4847579343877733,2.753338046659529
1638746296258211000,1.073211181640625,9.733789930972456,-2.5582924444213506,4.974515089988708
1638746296268202200,1.0832021484375,9.311874432212115,-4.069036906850338,7.109623915410041
1638746296278192400,1.0931923828125,9.051939301434158,-4.356462978883087,7.55627696506381
1638746296288183300,1.103183349609375,9.387909624144434,-3.180271665842831,6.517279369273782
1638746296298174200,1.11317431640625,8.999614070913195,-0.13742540711425244,3.5697020683228966
1638746296308165400,1.123165283203125,5.1009723091691725,3.4186680417686697,-0.7350440211959183
1638746296318155300,1.1331552734375,-10.477893895328044,7.048115846002101,-11.616750626230239
1638746296328146200,1.143146240234375,-23.792944814991948,9.371483390000462,-19.91384478906393
1638746296338137000,1.15313720703125,-17.004569453978537,6.574395341202616,-10.3879348074615
1638746296348128300,1.163128173828125,-6.327344826439023,2.0413632047533987,-0.19848785164654253
1638746296358118400,1.173118408203125,-1.0349842684954405,-0.6998793304428458,2.240181165137142
1638746296368110300,1.1831103515625,0.19894553228616713,-1.9299790515422819,2.4310928824409843
1638746296378101200,1.193101318359375,1.1186743590950965,-1.9933710350006817,0.6879062763154506
1638746296388092200,1.203092041015625,3.3060318426698445,-2.535745973831415,-0.16674392912238836
1638746296398082300,1.213082275390625,4.162858515363931,-2.6432573772624135,-1.20128776037395
1638746296408073500,1.223073486328125,3.279756414684653,-0.868984435738623,-2.194564346213639
1638746296418064400,1.233064453125,3.7178666769206523,0.5863835919052363,-1.5715911453187466
1638746296428055300,1.24305517578125,4.807301497527956,0.42363896155208347,-2.1916955127790567
1638746296438045200,1.253045166015625,5.3231888269275425,-0.6960460358902811,-3.0249864115849134
1638746296448036400,1.263036376953125,5.054158535546064,-1.4683745164722204,-2.9013477569565174
1638746296458027300,1.27302734375,3.9858378146380185,-1.4516130590245127,-2.362229481834173
1638746296468018200,1.28301806640625,2.2721885609030723,-1.0421762258261442,-1.4991229982182384
1638746296478008300,1.29300830078125,0.6716770260483026,0.1366954123392701,-0.025184417878091333
1638746296487999500,1.30299951171875,0.0963514192521572,1.6439719063967466,1.2536669130392373
1638746296497990400,1.312990478515625,0.5045645558744669,0.8991355361133814,1.11727399077788
1638746296507981300,1.322981201171875,0.8329483689785003,1.407572549507022,2.5284850429177284
1638746296517971200,1.33297119140625,-0.29557693752348424,2.7597037822991606,4.28521443670541
1638746296527962400,1.34296240234375,-2.2904922793567177,1.0136746462240815,2.496123865278065
1638746296537953300,1.352953369140625,-3.371951298779249,0.7252917118579149,0.8372899053141474
1638746296547944200,1.362944091796875,-3.241729174107313,1.3687532817691563,0.2527135089613497
1638746296557934300,1.372934326171875,-1.8096055361896752,0.8100827494367957,-0.21671273271031677
1638746296567925200,1.38292529296875,-0.09170563927292823,0.1882952511951327,0.3732329355906695
1638746296577916400,1.39291650390625,1.1014514216154814,0.33407354917824267,1.8831924581870436
1638746296587907300,1.4029072265625,1.3900380618602037,0.7269304189756512,2.1764788005553184
1638746296597897200,1.412897216796875,-0.4288777389883995,0.3117944973528385,0.8394167612750083
1638746296607888100,1.42288818359375,-2.8831682494044304,-0.26576573662757874,-0.4265412588648498
1638746296617879300,1.43287939453125,-3.6907121280133723,0.32978929598778484,-1.4712318055994809
1638746296627870200,1.4428701171875,-2.9521044229865074,0.9056815967559814,-1.8801194804824888
1638746296637860400,1.4528603515625,-1.164351237642765,0.7332637136504053,-1.845897769667953
1638746296647851300,1.462851318359375,-0.28103695551753044,0.9263798091307281,-2.4674238404944537
1638746296657842400,1.472842529296875,-0.0303992299169302,1.4376853636980056,-2.794032752880454
1638746296667833300,1.482833251953125,0.10350538266003131,1.5860574775665996,-2.9230437481969593
1638746296677823200,1.4928232421875,0.3056231152415275,1.195603284996748,-2.4607401249468324
1638746296687814100,1.502814208984375,0.06290975289940834,0.5484755937933922,-1.736620233347267
1638746296697805300,1.512805419921875,-0.8959218347638845,-0.03442307860553264,-1.1582764477737246
1638746296707796200,1.522796142578125,-1.9153081366330384,-0.4902198041796684,-1.0940345694877207
1638746296717786400,1.532786376953125,-2.4085914200365544,-0.994029450033605,-1.7009676129467783
1638746296727777300,1.54277734375,-2.419116321182251,-1.530824835166335,-1.8674450000874696
1638746296737768400,1.5527685546875,-2.366765371698141,-1.8625109046861528,-1.3958448484428225
1638746296747759400,1.56275927734375,-1.6761860767811536,-1.8627911829322576,-0.7121979831375181
1638746296757749200,1.572749267578125,0.3292395531505346,-1.6784972763329744,-0.23631854673847555
1638746296767740200,1.582740234375,2.763399129685759,-1.9757061989724636,-0.4652050437800586
1638746296777731300,1.5927314453125,4.365930772191286,-2.3841399926081297,-1.497434460609406
1638746296787722200,1.60272216796875,4.9025867488533255,-2.015006528225541,-2.086856689558178
1638746296797712400,1.61271240234375,4.865625676202773,-1.4090303470999002,-1.978680976999551
1638746296807703300,1.622703369140625,4.32265510956645,-1.117950136473775,-1.6027072913333773
1638746296817694500,1.632694580078125,3.036164515942335,-0.9438122977077961,-1.008473132058233
1638746296827685400,1.642685302734375,1.2369371659040451,-0.9855316708013415,-0.3104566728778183
1638746296837675300,1.65267529296875,-0.45008945384323595,-1.0065484476059674,0.48620209297090766
1638746296847666200,1.662666259765625,-1.3918009798794984,-0.7213897359833121,0.919241043291986
1638746296857657300,1.6726572265625,-1.3395336170256138,-0.4487830474197864,0.7616241312161087
1638746296867648300,1.682648193359375,-0.5219155036479234,-0.14698767377287147,0.3714331196270883
1638746296877638400,1.692638427734375,0.5187865579724311,0.12161094819307326,0.15220438550785184
1638746296887629300,1.70262939453125,1.2316057417482138,0.44663960565030575,0.36884777930900453
1638746296897620500,1.712620361328125,1.3117232345581054,0.8237409801721572,0.8183494963921606
1638746296907611400,1.722611328125,0.7659136451035737,0.9493237546056509,1.105345068053156
1638746296917601300,1.732601318359375,-0.09236322639882565,0.9829153508231043,1.1151789181947707
1638746296927592200,1.74259228515625,-1.0317927789777517,0.8680503697589039,0.9935789297871291
1638746296937583400,1.752583251953125,-1.7157810050666331,0.6575353957101703,0.8367745031379162
1638746296947574300,1.76257421875,-1.9293080204129218,0.5173448347315192,0.698630353295058
1638746296957564400,1.772564453125,-1.5936591847419739,0.48579088182151314,0.4735235209226608
1638746296967555300,1.782555419921875,-0.795178902554512,0.41020810983181,0.2557682203568518
1638746296977546200,1.792546142578125,0.12869944514930248,0.24700375301241873,0.18288024040907622
1638746296987537400,1.802537353515625,0.9348112451285123,0.0753729286313057,0.17169015335291624
1638746296997527300,1.81252734375,1.451354992610216,0.09468290151804686,0.21777269009202718
1638746297007518200,1.822518310546875,1.4886433975189923,0.24303514164239168,0.29865269170701503
1638746297017509000,1.832509033203125,1.088634025618434,0.2031523363262415,0.3536959490150213
1638746297027500300,1.842500244140625,0.4272919311016798,0.15865619199573994,0.3034144992813468
1638746297037490400,1.852490478515625,-0.2955804446548223,0.21145371620357034,0.150259827311337
1638746297047481300,1.8624814453125,-0.9143255064606666,0.2437508886963129,0.007660013233870267
1638746297057472300,1.87247216796875,-1.2635989628583193,0.2369540681630373,0.005557780257612466
1638746297067463400,1.88246337890625,-1.236233986070752,0.16033143173158168,0.04636632211655378
1638746297077453300,1.892453369140625,-0.8938239857017993,0.07197714871317147,0.08941649628928862
1638746297087444200,1.9024443359375,-0.45187166108489035,0.10099369210004806,0.20327771627157926
1638746297097435100,1.91243505859375,-0.042218262526392936,0.24361498735696077,0.321077581743896
1638746297107426300,1.92242626953125,0.20137714334726334,0.3205968124896288,0.3802157071501016
1638746297117416400,1.93241650390625,0.20912147386372087,0.18379881655871866,0.24631504009589553
1638746297127407400,1.942407470703125,0.008685995280742645,-0.17168401587307452,0.05183014048039913
1638746297137398300,1.952398193359375,-0.2199000575095415,-0.44900662704259153,0.02039279055423103
1638746297147389400,1.962389404296875,-0.2845937712162733,-0.5769353800803423,0.004014057946950197
1638746297157379300,1.97237939453125,-0.08162146763205527,-0.6410942562580109,-0.04209346710294485
1638746297167370200,1.982370361328125,0.2629518482506275,-0.4850502925872802,-0.15300518049672246
1638746297177361200,1.992361083984375,0.5585089120298624,-0.21844342896044253,-0.3471943120360374
1638746297187352300,2.002352294921875,0.5566413645923137,0.07449585353583096,-0.4272304101727903
1638746297197342500,2.012342529296875,0.18823533770143985,0.371828110294044,-0.636030543127656
1638746297207333400,2.02233349609375,-0.4340694624125957,0.4215057489156723,-1.0128073618702589
1638746297217324300,2.03232421875,-1.0432996768981218,0.04851882397532463,-1.294573070053756
1638746297227315500,2.0423154296875,-1.3838000442534684,-0.1844376989841461,-1.2785579009287058
1638746297237305300,2.052305419921875,-1.3276280751764773,-0.0016167875468730926,-0.9309728360094129
1638746297247296300,2.062296142578125,-0.7415905202299357,0.3317161723971367,-0.5605092920668423
1638746297257287200,2.072287109375,0.12557985182404519,0.7633209982618689,-0.13925578261287883
1638746297267278300,2.0822783203125,0.9379027814030647,1.0491191768318413,0.1847683922432363
1638746297277268500,2.0922685546875,1.4540683432221413,0.7665180407375097,0.266866537476331
1638746297287259400,2.10225927734375,1.4914046789258717,-0.14568126734942197,0.18056491267140953
1638746297297250300,2.112250244140625,1.0542828432053326,-1.483459272879362,-0.05844064466133713
1638746297307241500,2.122241455078125,0.44510231308043,-2.449559682501852,-0.23080990285221487
1638746297317231400,2.1322314453125,0.15637714114785192,-2.6450214643254872,-0.6069814126454294
1638746297327222300,2.14222216796875,0.4182318418115377,-2.219855147075653,-1.052564348849654
1638746297337213200,2.152213134765625,1.2041846508592366,-1.5116560243159531,-1.0503647929787636
1638746297347204400,2.162204345703125,2.245913132917881,-0.6014595804840326,-0.43369887553453446
1638746297357194500,2.172194580078125,3.152314860641956,0.1922246995985508,0.5395044979609549
1638746297367185000,2.182184814453125,3.4379993497043846,0.6389619204044341,1.3095831537894904
1638746297377175800,2.19217578125,2.806511126181483,0.7535472077444195,1.7123836177133023
1638746297387166700,2.202166748046875,1.299679745543003,0.6029232232958078,1.948436060861498
1638746297397156600,2.212156494140625,-0.6041530573517083,0.42549744890034197,1.808628800112009
1638746297407147800,2.222147705078125,-2.294495085257292,0.34753187342733144,1.369698599795252
1638746297417138700,2.232138671875,-3.2030706498891113,0.35354221975803374,0.8651791982367635
1638746297427129900,2.2421298828125,-3.0612755763232706,0.347191389426589,0.4920237848617136
1638746297437119700,2.25211962890625,-2.081725025758147,0.43981940424144267,0.494526853723824
1638746297447111000,2.26211083984375,-0.8164075685441493,0.4259142130076885,0.42184170287176964
1638746297457101800,2.272101806640625,0.20845278082191943,0.2735936537742615,-0.007232873862981796
1638746297467092700,2.2820927734375,0.7041910561621189,0.21476094105541704,-0.36821883375570175
1638746297477082600,2.29208251953125,0.6657423753023147,0.33104075735360383,-0.5056496111648157
1638746297487073800,2.30207373046875,0.3654951078802347,0.28371260446757074,-0.432552628108859
1638746297497064700,2.312064697265625,0.008526420804858208,0.11927490646094083,-0.01906538700852543
1638746297507055900,2.322055908203125,-0.23431144469976423,-0.09080196843147277,0.5717402956552803
1638746297517045800,2.332045654296875,-0.14439970310628414,-0.25704174742400643,0.9229862211696803
1638746297527037000,2.342036865234375,0.17913491640090942,-0.3047878334611654,1.4519580730699002
1638746297537027800,2.35202783203125,0.4969108262509107,-0.22178747869133947,1.5901370019651948
1638746297547018800,2.362018798828125,0.7215858430773019,-0.5047390356585383,1.2133553609170018
1638746297557008600,2.372008544921875,0.30906361108422276,-0.18931144250035284,1.1520016052879392
1638746297566999800,2.381999755859375,-0.0817512314915657,0.1576075597256422,1.1809037285149098
1638746297576990700,2.39199072265625,-0.23609365194141863,0.14039514364004135,0.9035912003479898
1638746297586982000,2.40198193359375,-0.3966951327860355,0.055959787631034846,0.5215587991647422
1638746297596971800,2.4119716796875,-0.6898620865583419,0.19050854333043096,0.23200009901747107
1638746297606963000,2.421962890625,-0.9815741653472184,0.39737580852657556,-0.01728741755057126
1638746297616953900,2.431953857421875,-1.1026187118291855,0.4575967607334256,-0.2717685207063332
1638746297626944800,2.44194482421875,-1.0299339993685483,0.4651815167739987,-0.4270155983783304
1638746297636934700,2.4519345703125,-0.7050210772454738,0.4118897793084383,-0.48322629203051326
1638746297646925800,2.46192578125,-0.0797685332417488,0.2643777894005179,-0.47227015986070037
1638746297656916700,2.471916748046875,0.33722879833877084,-0.15614683952331543,-0.599732026039064
1638746297666908000,2.481907958984375,0.23397651365697383,-0.06428074899166822,-0.5813379989534616
1638746297676897800,2.491897705078125,0.1387970607936382,0.02372019054442644,-0.06221387958973646
1638746297686889000,2.501888916015625,0.10438917975723742,0.038055005367100235,-0.3098648809971288
1638746297696879900,2.5118798828125,0.05646189193427562,0.14311696981936692,-0.5985012056024744
1638746297706870800,2.521870849609375,-0.04450549668073654,0.21102175452709196,-0.4078353893510997
1638746297716860700,2.531860595703125,-0.10136135636866092,0.11035568694621324,-0.23373280456159262
1638746297726851800,2.541851806640625,-0.13302607617676257,-0.0931231048554182,-0.17980521687790751
1638746297736842800,2.5518427734375,-0.11234043102264403,-0.2782490783646703,-0.18822675253618507
1638746297746834000,2.561833984375,-0.05697159502208233,-0.05678659384399652,-0.3698480789253488
1638746297756824800,2.571824951171875,-0.06887129165232181,-0.08540829269438982,-0.26868896713051943
1638746297766815000,2.58181494140625,-0.1381400581896305,-0.06438274806141853,-0.36251989146172997
1638746297776806000,2.591805908203125,-0.2838485058069229,-0.045295770275592805,-0.22433584799990056
1638746297786796800,2.601796875,-0.4221113135933876,-0.07057955687493085,-0.029006168123334643
1638746297796786700,2.61178662109375,-0.3946785322666168,-0.09149579591453075,-0.016327011553198097
1638746297806777600,2.621777587890625,-0.22540216205716132,-0.10066226818859576,-0.11288637446761131
1638746297816768800,2.631768798828125,-0.08520283325016498,-0.09058248046189546,-0.20757965124920008
1638746297826760000,2.641760009765625,-0.017304186022281644,-0.14267068735659122,-0.2781188761137426
1638746297836750800,2.651750732421875,-0.003980009546875953,-0.20076310310214757,-0.25754958734828975
1638746297846740700,2.66174072265625,0.03718552905619144,-0.2253130224689841,-0.15750205352455376
1638746297856732000,2.67173193359375,0.10180559300482273,-0.2516571317762136,-0.08939020193740725
1638746297866722800,2.681722900390625,0.10757248596847056,-0.20588468389958142,-0.11852529367003589
1638746297876713700,2.691713623046875,0.03882043678164482,-0.13662906910479067,-0.12121391169950366
1638746297886703600,2.70170361328125,0.0015185878694057465,-0.07333265497535467,-0.06694163876399398
1638746297896694800,2.71169482421875,0.02506663671731949,-0.06013853462040424,-0.006472703145444392
1638746297906686000,2.72168603515625,0.05989712707996368,-0.10090835190415381,0.1435232125326991
1638746297916676900,2.7316767578125,0.13453823430538175,-0.128489601790905,0.30847543593272564
1638746297926666800,2.741666748046875,0.09258943637013435,-0.06436550466567277,0.20804931458756326
1638746297936658000,2.751657958984375,-0.1527455066472292,-0.03969342022389173,0.06907265944331883
1638746297946648800,2.76164892578125,-0.3874415667504072,-0.03871960675567388,-0.06770520701501519
1638746297956639700,2.7716396484375,-0.4385287799090147,-0.008615268132090568,-0.06033186523541808
1638746297966629600,2.781629638671875,-0.30456805323064323,-0.032736440692842005,0.08866846353411674
1638746297976620800,2.791620849609375,-0.04035363769829273,-0.11321896742284297,0.11425225599333644
1638746297986612000,2.801612060546875,0.24872750806510446,-0.1268599547624588,0.012964841643720864
1638746297996603000,2.811602783203125,0.5039624983280897,-0.17279139259308576,-0.0837225315645337
1638746298006592800,2.8215927734375,0.630983781132102,-0.15194646522402763,-0.08366846328973769
1638746298016584000,2.831583984375,0.5294973370790481,-0.1316632633909583,0.0868171365790069
1638746298026574800,2.841574951171875,0.33004385527074337,-0.03481237018406391,0.24210516731590032
1638746298036565800,2.851565673828125,0.18130407713353633,-0.013753800064325332,0.2917942041143775
1638746298046555600,2.8615556640625,0.08489011403918266,-0.011535539492964745,0.1761953558176756
1638746298056546800,2.871546875,0.014705401700735091,0.02621756031811237,-0.013639818295836447
1638746298066538000,2.8815380859375,-0.0920598595380783,0.04681377362310886,-0.016806757894158364
1638746298076529000,2.89152880859375,-0.24285072498619556,-0.021825462839007378,0.12383388493955134
1638746298086518800,2.901518798828125,-0.2978945668160915,-0.07156535304188728,0.05710004370734095
1638746298096510000,2.911510009765625,-0.14852350503802297,-0.07915157038718462,-0.0036665596835315224
1638746298106500900,2.9215009765625,0.13207272097468375,-0.05279050994515419,0.018085253397375343
1638746298116491800,2.93149169921875,0.34253508805334565,-0.000009644611179828643,0.05160393050909042
1638746298126481700,2.941481689453125,0.3549555936872959,0.00419277551472187,0.13132862460911274
1638746298136472800,2.951472900390625,0.13579261828064917,-0.024551380671560763,0.15763956229910253
1638746298146463700,2.961463623046875,-0.16694646595716475,-0.05538111096024513,0.13789002895131705
1638746298156455000,2.971454833984375,-0.34534313121140003,-0.13798106823563575,0.07483104030694812
1638746298166444800,2.98144482421875,-0.2485819621145725,-0.1837774815097451,-0.06577142594084143
1638746298176436000,2.99143603515625,0.06467208639681339,-0.14995090749263762,-0.09840572143346071
1638746298186427000,3.001427001953125,0.34498014311790465,-0.09364595968574285,-0.06403524979799985
1638746298196417800,3.011417724609375,0.3863122704595327,-0.04538520212471485,0.03852072318270802
1638746298206407700,3.02140771484375,0.20451193424165248,-0.021666472885012625,0.12420812507942318
1638746298216398600,3.031398681640625,-0.058204351687431335,0.0004471592456102371,0.04336246412545442
1638746298226389800,3.0413896484375,-0.25682839693427084,0.004552840998768806,-0.06914148689582944
1638746298236381000,3.051380859375,-0.30154490601718426,-0.015378478656709193,-0.0017711378583684563
1638746298246370800,3.061370849609375,-0.21171090583503244,-0.030621932756900786,0.06845701176300645
1638746298256361700,3.07136181640625,-0.03515197740197182,-0.03761076873093843,0.0763417736634612
1638746298266353000,3.081352783203125,0.07968143948018551,-0.053986441731452936,-0.020394114861637353
1638746298276343800,3.09134375,0.1374123284369707,-0.04349748868197202,-0.05809080831035971
1638746298286333700,3.101333740234375,0.11831482925713062,0.0037967619344592093,-0.040172764706052834
1638746298296324600,3.11132470703125,-0.00032850130200386043,0.023560616068542,-0.03451064729113132
1638746298306315800,3.121315673828125,-0.1279968498378992,-0.00402677129805088,0.032773119441419835
1638746298316307000,3.131306884765625,-0.1664466997414827,0.02736702261418104,0.01786474251449108
1638746298326296800,3.141296875,-0.12708908734321595,0.012202478969097137,-0.03282795490119606
1638746298336287700,3.151287841796875,-0.0951058031052351,-0.03346387818455696,-0.02265577618330717
1638746298346279000,3.16127880859375,-0.05392097527980804,-0.016615326975286004,0.020781945135444402
1638746298356269800,3.171269775390625,0.019015666115283963,-0.022827333357930184,-0.0003789528476074338
1638746298366260200,3.18126025390625,0.06213292330801486,-0.03573299216032028,0.020683599327504635
1638746298376251100,3.191251220703125,0.06314706878662109,-0.012520751138031482,0.042364246868342156
1638746298386242000,3.201241943359375,0.013206687575578689,0.015309212812781333,0.024199498493969438
1638746298396233200,3.211233154296875,-0.028191490739583967,-0.00793985308855772,0.012903028453886509
1638746298406223400,3.221223388671875,-0.046340895414352413,-0.0005196399599313736,0.033261195219308134
1638746298416214300,3.23121435546875,-0.04710895717740059,-0.018776596662402154,0.060749506125599144
1638746298426205200,3.241205078125,-0.019244798696041107,-0.07651245405524969,0.01623904100880027
1638746298436196400,3.2511962890625,0.033574352821707724,-0.10307108289599418,-0.01889963852018118
1638746298446186200,3.261186279296875,0.08372340834736823,-0.09716127433031797,-0.034091837357170876
1638746298456177200,3.27117724609375,0.09319383200407028,-0.08164514076858759,-0.006202946293354034
1638746298466168000,3.28116796875,0.039594928285479544,-0.08571049051135778,0.04244867374878376
1638746298476159200,3.2911591796875,-0.051908466413617134,-0.039540860010683535,0.03696688133683056
1638746298486149400,3.3011494140625,-0.08123217605352401,-0.026135434992611405,0.0595650821140036
1638746298496140300,3.311140380859375,0.014816460859775542,0.003332651554048061,0.07396043148487806
1638746298506131200,3.321131103515625,0.13533318407535552,-0.016055062744021416,0.0334587636180222
1638746298516122400,3.331122314453125,0.14964111089110374,-0.03545797461122274,0.04254427961036562
1638746298526112300,3.3411123046875,0.05815875898003578,-0.016089841796457765,0.08780863183438778
1638746298536103200,3.351103271484375,-0.07314940736293793,-0.047561377120018004,0.01993497291728854
1638746298546094000,3.361093994140625,-0.18135200792849063,-0.029679975731670853,-0.05115125483814627
1638746298556085200,3.371085205078125,-0.19142156652212142,-0.020945465134084223,0.014429507368803024
1638746298566076200,3.381076171875,-0.07864858930110931,-0.027060733143985268,0.07495455708876252
1638746298576066300,3.39106640625,0.1232259821742773,-0.04397562758773565,0.08769125253241508
1638746298586057200,3.40105712890625,0.4024252008706331,0.0299611307606101,-0.025254597037471828
1638746298596048400,3.41104833984375,0.5592354727387427,0.0909966142207384,-0.18738588126525282
1638746298606039300,3.421039306640625,0.18533669365048408,-0.2101484788239002,0.14005451350882647
1638746298616029200,3.431029296875,-0.25440204657018184,-0.15884528482705354,0.16239757048115133
1638746298626020000,3.44102001953125,-0.5433382309049367,-0.1294043785482645,-0.09217764069885015
1638746298636011300,3.45101123046875,-0.6814940711855888,-0.060813657402992244,-0.04934051562175154
1638746298646002200,3.461002197265625,-0.6835112562268972,0.07574614585787058,0.06090732703581452
1638746298655992300,3.470992431640625,-0.5146142407238483,0.1613955538317561,0.14181213429849593
1638746298665983200,3.480983154296875,-0.09399345794916153,0.2013783123910427,0.00570098812058568
1638746298675974400,3.490974365234375,0.47096331504583355,0.029590251621603964,-0.20053397052139044
1638746298685965300,3.50096533203125,0.8954939647406339,-0.1828045448243618,0.2909956010825932
1638746298695955200,3.510955078125,0.7933131086826324,-0.2176829659819603,0.4155975477851927
1638746298705946000,3.520946044921875,0.29784137532413,-0.148875971737504,-0.09121011084094643
1638746298715937000,3.53093701171875,-0.20237375316917894,-0.04536620516330003,-0.2018198090808466
1638746298725928200,3.54092822265625,-0.46806817812621593,0.015108721804618835,-0.11778773664310574
1638746298735918300,3.55091845703125,-0.3880255041182041,-0.03369856372326612,0.008726765682548284
1638746298745909200,3.5609091796875,-0.10006488681733608,-0.02517769587635994,0.015364304000884293
1638746298755900200,3.570900146484375,0.1762204902589321,-0.024507249268889426,0.01654196947813034
1638746298765891300,3.580891357421875,0.2835369556397199,-0.02535012983381748,0.010256605598330496
1638746298775881200,3.590881103515625,0.1993354083865881,-0.04885083240866661,0.15328049030676483
1638746298785872100,3.6008720703125,0.01575637205839157,-0.06398235056698322,0.14564005855619908
1638746298795863000,3.610863037109375,-0.092569562625885,-0.09074088589400052,0.00917465558052063
1638746298805854200,3.620854248046875,-0.13038754436671732,-0.07027297514379025,-0.020313596971333024
1638746298815844400,3.63084423828125,-0.09018997401297092,-0.04643208082914352,-0.010535130278766154
1638746298825835300,3.640835205078125,-0.020980244186520575,-0.0022588848426938054,0.016874270172417164
1638746298835826200,3.650826171875,0.10848434011638164,-0.019093699787557122,0.01744476353675127
1638746298845817300,3.6608173828125,0.26627134806215763,-0.1492810454070568,0.006749328129738569
1638746298855807200,3.67080712890625,0.24327216526865958,-0.09299538682252168,0.003096212449669838
1638746298865798100,3.680798095703125,0.14155366602540015,-0.09893412922173737,0.13296908529251814
1638746298875789000,3.6907890625,0.04644201770126819,-0.22895400931984186,0.21751268744897095
1638746298885780200,3.7007802734375,0.04905950672328472,-0.3491007301792502,0.38094022203236816
1638746298895770400,3.710770263671875,0.016531448084115982,-0.6366688410311937,0.7321741648480296
1638746298905761300,3.72076123046875,-0.10712357315719127,-0.8476809509471058,0.9960799528226256
1638746298915752200,3.730752197265625,-0.18096797704696654,-1.011099827300012,0.8257879758298396
1638746298925743400,3.740743408203125,-0.17712533014416693,-0.6517147267326712,0.36965120464637874
1638746298935733200,3.750733154296875,-0.044241292786598205,-0.23373422933369872,0.11625219763889909
1638746298945724200,3.76072412109375,0.10560147815644741,-0.20510376265496014,0.06543472306607291
1638746298955715000,3.770715087890625,0.22692542610168456,-0.33814152926951646,0.18764862385466693
1638746298965706200,3.780706298828125,0.3552203821033239,-0.4316963035404682,0.2891208932518959
1638746298975696400,3.7906962890625,0.35505788501799107,-0.29093758728504177,0.19729966477528213
1638746298985687300,3.800687255859375,0.23936171382665633,-0.12036270169764757,-0.012595569939911365
1638746298995678200,3.81067822265625,0.01343406659066677,0.13335545426160098,-0.20620354059040547
1638746299005669400,3.82066943359375,-0.2176829659819603,0.35421354314833875,-0.41287075316980476
1638746299015659300,3.8306591796875,-0.3664361881226301,0.6437424326792359,-0.4069328875534236
1638746299025650200,3.840650146484375,-0.3803203365683555,0.49195495740920303,-0.06554548996416852
1638746299035641000,3.85064111328125,-0.28771511810719963,0.23855127422660588,-0.04221607056930661
1638746299045632300,3.86063232421875,-0.15355039328932762,0.38795565375238655,-0.21922522698789834
1638746299055622400,3.870622314453125,-0.12434884872436523,0.5255488917142153,-0.42604909143373365
1638746299065613300,3.88061328125,-0.2117091522693634,0.6868526756092905,-0.5774351462960243
1638746299075604200,3.890604248046875,-0.23826398171782492,0.7987114605948329,-0.7256279580749571
1638746299085595400,3.900595458984375,-0.19212591539919374,0.8124085620358585,-0.7092528695963323
1638746299095586300,3.91058642578125,-0.13857728056311608,0.9276356544107198,-0.5695309490427375
1638746299105576200,3.920576171875,-0.11720657575428485,0.3069984952479601,0.014578560450673102
1638746299115567000,3.930567138671875,-0.03109364192187786,0.16909253807514904,0.07176964344233273
1638746299125558000,3.94055810546875,0.01657937887907028,0.11639964328557252,0.14898425441756843
1638746299135549200,3.950549072265625,0.058441667574644085,-0.1957271547615528,0.5665985488526523
1638746299145539300,3.960539306640625,0.2760276029229164,-0.27186113089323044,0.7550052975982428
1638746299155530200,3.9705302734375,0.4147036676853895,-0.2591366738766432,0.3202390850931406
1638746299165521200,3.980521240234375,0.1753062980234623,-0.6117948042765259,0.21369946757005526
1638746299175512300,3.99051220703125,0.06061316639482975,-0.6368932974368333,0.29254341504648324
1638746299185502200,4.000502197265625,0.14726912106275558,-0.12996084338724612,0.0900635711543262
1638746299195493000,4.0104931640625,0.06050093819200992,0.08755261124670505,0.24909546459466217
1638746299205484000,4.020484130859375,-0.28632921670675276,-0.12660977939367293,0.574648292056471
1638746299215475200,4.03047509765625,-0.5066828632026911,-0.15211363848447798,0.28055662465468045
1638746299225465300,4.04046533203125,-0.4729354919016361,0.04220423400104046,-0.04635200133025646
1638746299235456300,4.050456298828125,-0.21430618302524088,0.10660744032859802,-0.04362769093289971
1638746299245447200,4.060447265625,0.12314531815350055,0.20799188531190155,-0.12130100546106695
1638746299255438300,4.070438232421875,0.3657955521315336,0.20685411345362661,-0.31880773711577054
1638746299265428200,4.08042822265625,0.34991993760764595,0.15286416459083557,-0.2471682593917474
1638746299275419100,4.090419189453125,0.16658523142933845,0.01402618726491928,0.049615971562266346
1638746299285410000,4.10041015625,-0.04970598793327808,-0.10695493859201669,0.11287267473582177
1638746299295401200,4.110401123046875,-0.24769056623280047,-0.18590163405686616,0.1002413028301671
1638746299305391400,4.120391357421875,-0.3973626567840576,-0.24620938776433465,0.0697886987581849
1638746299315382300,4.13038232421875,-0.39667116738855834,-0.26630203546136616,-0.053752304182015355
1638746299325373200,4.140373291015625,-0.2522913380265236,-0.1271037003904581,-0.1066883966103196
1638746299335364400,4.1503642578125,-0.09113982208371162,-0.0021586393386125564,-0.0184380123578012
1638746299345354200,4.160354248046875,0.017029460734128952,0.0022246903121471403,0.012416998502612114
1638746299355345200,4.17034521484375,0.019883681121468544,-0.04389642487168312,-0.009169979405403136
1638746299365336000,4.180336181640625,-0.0231751238822937,-0.08644348096102476,-0.04390227009057998
1638746299375327000,4.190326904296875,-0.0895633665472269,-0.13609072444438933,-0.07461041982620954
1638746299385316900,4.20031689453125,-0.1316430973857641,-0.10840659870505333,-0.060552376118302345
1638746299395307800,4.210307861328125,-0.12486322798728942,-0.05254676431715488,-0.057928457355499265
1638746299405299000,4.220298828125,-0.06680968294739723,-0.01907557960897684,-0.10202405806109309
1638746299415289900,4.230289794921875,0.02333236027061939,0.007338087803125381,-0.11361172960009425
1638746299425279700,4.24027978515625,0.13017828553020952,-0.0004319616764783859,-0.11127261912804096
1638746299435271000,4.25027099609375,0.2562579035699367,-0.04246551528573036,-0.05359145106449723
1638746299445261800,4.26026171875,0.34176410368084903,-0.1041553710013628,0.012263561506569385
1638746299455253000,4.2702529296875,0.3365145125895738,-0.1855798547565937,0.03236881295684725
1638746299465243000,4.280242919921875,0.24213643923699854,-0.2244096438884735,-0.03282747997716069
1638746299475233800,4.29023388671875,0.14263912317454813,-0.12474573908746242,-0.06391220794022083
1638746299485224700,4.300224609375,0.14703589682877063,0.017955927929282186,0.03256769652981311
1638746299495215900,4.3102158203125,0.2962380317807197,0.027151041775941846,0.21104104374945162
1638746299505205800,4.320205810546875,0.47210021012127396,-0.008424129474163055,0.3294615253381431
1638746299515197000,4.330197021484375,0.5468909549504518,0.024899463456869123,0.40265184923335906
1638746299525187800,4.340187744140625,0.46771863403618336,-0.014499649995565413,0.28938612005934117
1638746299535179000,4.350178955078125,0.2744984936594963,-0.120184714782238,0.05458133888468146
1638746299545170000,4.360169921875,0.027736148187518118,-0.11803805814236402,-0.13514160702601075
1638746299555159800,4.370159912109375,-0.11737257997095585,-0.012265607333183288,-0.26654490430653094
1638746299565150700,4.380150634765625,-0.08821019837260245,0.12367343368083238,-0.3929873643092811
1638746299575142000,4.390141845703125,0.02303308506309986,0.17898469427525995,-0.418371250282228
1638746299585132800,4.4001328125,0.12926292425096034,0.15042641604989765,-0.5775786464199424
1638746299595122700,4.410122802734375,0.24307342782616614,0.13210370063483715,-1.3142071603283285
1638746299605113900,4.42011376953125,1.0848714582145214,2.934491901667416,-6.014108313584328
1638746299615105000,4.43010498046875,4.374743024200201,6.115048814192414,-9.336330828076601
1638746299625096000,4.440095947265625,8.638401754918695,4.112034921577573,-1.1846670265711843
1638746299635085800,4.4500859375,9.104902829858661,3.4102520956009625,0.20247120392797513
1638746299645076700,4.46007666015625,8.888055730178952,3.517614153689146,-0.5485998046949505
1638746299655068000,4.47006787109375,8.97597308308482,2.728267026028037,-0.4507948256336152
1638746299665058800,4.480058837890625,4.476186213633418,-0.7932447196215391,1.5782627320371567
1638746299675048700,4.490048583984375,-24.89572251677513,-14.944021071761846,17.957522504997254
1638746299685039900,4.500039794921875,-41.43366113195419,-13.22361883663535,21.27140155403614
1638746299695031000,4.510031005859375,-25.58314363992214,0.8694991072624921,3.9560371351361274
1638746299705022000,4.52002197265625,-3.589059095221758,4.7888200844198465,-6.4146121910035605
1638746299715011800,4.53001171875,8.32738174906969,4.492222863937914,-3.3913115405485033
1638746299725002800,4.540002685546875,9.64193114696443,3.5889918752044436,0.38587840908691284
1638746299734994000,4.549993896484375,8.902280654886365,3.7677345774173734,0.01899316202253103
1638746299744984800,4.55998486328125,9.02645940774083,3.808063665196299,0.05975786473974585
1638746299754974700,4.569974609375,8.97672185562551,3.850953835634887,0.12202858908325433
1638746299764966000,4.5799658203125,8.95072232197225,3.902875161530077,0.15075434196316637
1638746299774957000,4.58995703125,8.922118743300437,3.9415059209585186,0.19366043149009346
1638746299784948000,4.599947998046875,8.8907451153934,3.9969472376734014,0.23038638021051883
1638746299794937900,4.609937744140625,8.831011654442548,4.002106227871775,0.2707707053080201
1638746299804928800,4.6199287109375,8.718747211265564,1.7798387589573859,-0.19110183304846284
1638746299814920000,4.629919921875,2.1518442716449497,-7.154509351319074,-4.333161306011677
1638746299824910800,4.639910888671875,-13.566793976157904,-16.334754130148887,-6.545877102726697
1638746299834900700,4.649900634765625,-25.672004995679853,-14.41655202564001,-0.18343086002916095
1638746299844892000,4.659891845703125,-20.824331155753136,-0.3417521209821105,3.064201400642097
1638746299854882800,4.6698828125,-4.514866365161538,4.155922578620911,3.6474598462641237
1638746299864874000,4.6798740234375,6.8009285531163215,1.5321818027332423,0.49395953869726505
1638746299874865000,4.689864990234375,9.181089412960409,1.3812266866341232,-0.8318805936165153
1638746299884854800,4.699854736328125,8.193002504718303,1.7678785643115638,-0.1122604976542294
1638746299894845700,4.709845703125,6.623016456508636,1.274414663644135,0.5767654303409159
1638746299904836900,4.7198369140625,3.824853471955657,-0.6428250255733728,0.4952538528241217
1638746299914827800,4.729827880859375,0.1247246962994337,-2.7790719151139256,-0.1758613015577197
1638746299924818000,4.73981787109375,-4.468206905317306,-2.54041805729568,0.07653539653941989
1638746299934808800,4.749808837890625,-7.5898536559730765,-0.23183190284371374,1.2945638638339936
1638746299944800000,4.759800048828125,-5.498011140826344,-0.32751638261973853,2.419824031060189
1638746299954791000,4.769791015625,-0.6284019479453563,-0.7323007138371467,1.0516574631378055
1638746299964780800,4.77978076171875,3.0226708281189203,-0.26351474283039567,-0.6567891073875128
1638746299974771700,4.789771728515625,4.6795232588768005,0.07875234193652868,-1.2153623168252408
1638746299984763000,4.799762939453125,4.407690185034275,-0.016496084509789944,-1.1109313437528907
1638746299994753800,4.80975390625,2.333189849832654,-0.07190583704262972,-0.6122425480440259
1638746300004744000,4.819743896484375,-0.8907347875148057,0.09963964714258909,-0.008357512245047837
1638746300014734800,4.82973486328125,-3.635371933585405,-0.01002601171284914,0.6383722839482128
1638746300024726000,4.83972607421875,-3.8214468783825635,-0.261063550285995,0.6381364293657242
1638746300034717000,4.849717041015625,-1.7749182536900043,-0.24994682072699068,0.011370119798183441
1638746300044706800,4.859706787109375,0.61056584700346,-0.010303367349505424,-0.6831869927085936
1638746300054697700,4.86969775390625,1.8956991807997225,0.13243454002439975,-0.744008687287569
1638746300064689000,4.87968896484375,1.9713667084634303,0.037547932627797126,-0.40244229813590643
1638746300074679800,4.8896796875,1.2034247724026441,0.0005886135429143905,-0.14594970902726054
1638746300084670000,4.899669921875,0.11685469357669352,-0.2873237807020545,-0.03440685812309384
1638746300094660900,4.909660888671875,-0.764863259267807,0.007552607336640357,-0.11192673565521835
1638746300104652000,4.919652099609375,-0.9184411250859499,0.42333647147417064,-0.42403029895722866
1638746300114643000,4.929642822265625,-0.5775742625057697,0.4082113830566406,-0.9355376597069204
1638746300124632800,4.9396328125,-0.06066518884301185,0.2470373630210757,-0.934712022537738
1638746300134623700,4.949623779296875,0.3580956452786922,0.14589520236104725,-0.2758535615302622
1638746300144615000,4.959614990234375,0.3448217376857996,0.27421996897906065,0.15759236215651035
1638746300154605800,4.969605712890625,-0.16295651953816412,0.20245470945090055,0.24913097429946063
1638746300164596700,4.9795966796875,-0.8501356506228447,0.08415215515345334,0.11182751306444406
1638746300174587000,4.9895869140625,-1.2497241667628287,0.12047931381464004,-0.061558484420925375
1638746300184578000,4.999578125,-1.0582879871934652,0.3508013966172933,-0.12634879036992788
1638746300194569000,5.00956884765625,-0.4373918848335743,0.3777770818263292,0.1304967038296163
1638746300204560000,5.019559814453125,0.22634090421199798,0.21805881355702875,0.6089645492866635
1638746300214549800,5.0295498046875,0.6241185715377331,0.17002601953297852,0.8204752563744783
1638746300224541000,5.039541015625,0.6686836894512176,0.03614391104876995,0.7833907034747302
1638746300234531800,5.04953173828125,0.36673955498337746,-0.16079145045876503,0.6888444339483976
1638746300244522800,5.059522705078125,-0.03382511271238327,-0.2079009921580553,0.5770297803655267
1638746300254513000,5.069512939453125,-0.28353520207405086,-0.164581198130548,0.2713492358483374
1638746300264503800,5.07950390625,-0.18739479522407054,-0.16093758093118668,0.025686668311804533
1638746300274495000,5.089494873046875,0.2653963187932968,-0.17414193041920661,0.09959025504291057
1638746300284486000,5.09948583984375,0.6174345637291669,-0.12923282137364148,0.16660291321650147
1638746300294475800,5.109475830078125,0.6805757872968912,-0.03696399526000023,0.1276237696086522
1638746300304466700,5.119466796875,0.5318757566481829,0.07185410685539245,0.21129078072682023
1638746300314457900,5.129457763671875,0.05219429761767387,0.049565118157863616,0.02549392221868038
1638746300324448800,5.13944873046875,-0.539068883022666,0.018824527457356452,0.25548311980515714
1638746300334439000,5.14943896484375,-0.3493745786845684,-0.07939969992935657,0.23575433698445558
1638746300344429800,5.159429931640625,0.09377718484997749,0.03769347857832908,-0.1671964951954782
1638746300354421000,5.1694208984375,0.29543606774806974,0.17996552200615404,-0.4227515111930668
1638746300364412700,5.17941259765625,0.15717735161483287,0.023659984789788722,-0.26427622872218487
1638746300374402600,5.189402587890625,0.08687281228899955,-0.17600830881297588,-0.006949965268373489
1638746300384393500,5.1993935546875,0.15854922448992728,-0.3197147689580917,0.037838147746026514
1638746300394384400,5.20938427734375,0.16660218256413936,-0.39306408280730243,-0.20238982752114534
1638746300404375600,5.21937548828125,0.1200017594307661,-0.36500820114612575,-0.21157412771284578
1638746300414365400,5.229365478515625,0.14522154088318348,-0.28415537979900835,-0.022342910841852425
1638746300424356400,5.2393564453125,0.2503705990970135,-0.18886808264702556,-0.04625146356523037
1638746300434347300,5.24934716796875,0.2831716294586658,-0.164596103438735,-0.16948928230777383
1638746300444338700,5.259338623046875,0.18641864366829394,-0.22552578843683002,-0.16753960954472422
1638746300454329600,5.26932958984375,0.11989362288117408,-0.26100334453135726,-0.21110519502684472
1638746300464319500,5.279319580078125,0.22867373107373712,-0.19986323165297507,-0.28053689704090357
1638746300474310400,5.289310302734375,0.36238135977387426,-0.06053600950539112,-0.22773060500472783
1638746300484301600,5.299301513671875,0.35399990039765833,0.00203822782933712,-0.09193083546408451
1638746300494292500,5.30929248046875,0.2121972280472517,-0.01591799236088991,0.11880055781430564
1638746300504282400,5.319282470703125,0.17821487894654273,0.029359365475177764,0.17498247289657592
1638746300514273300,5.329273193359375,-0.05623685100674629,-0.06926730523258447,-0.02095306391865015
1638746300524264400,5.339264404296875,-0.44987551883161064,-0.1254416123971343,0.23351488749459384
1638746300534255600,5.349255615234375,-0.5867582704365253,-0.10042904395461082,0.41983328565880657
1638746300544245500,5.35924560546875,-0.44269525193870063,-0.06574409954249859,0.3615058921135962
1638746300554236400,5.369236328125,-0.2514180623233318,0.09671645317226647,0.2945700985684991
1638746300564227300,5.379227294921875,0.04217325434088707,0.2935097758606076,0.2221509051762521
1638746300574218500,5.389218505859375,0.2717050635486841,0.20385639294236899,-0.028023157568508757
1638746300584208400,5.39920849609375,0.2740267844945192,0.1348652743026614,-0.21742752991616723
1638746300594199300,5.40919921875,0.06720715783238411,0.13808452861011028,-0.20283347963541745
1638746300604190500,5.4191904296875,-0.14331833761036394,0.0006745382606983184,-0.18034809158295392
1638746300614181600,5.429181640625,-0.23054186303317545,-0.1140913663432002,-0.1666232253521681
1638746300624171500,5.439171630859375,-0.16439444338679313,-0.11671440832316875,-0.11777429263964295
1638746300634162400,5.449162353515625,0.05683189429044723,-0.09181260677874088,-0.029101006799936293
1638746300644153300,5.4591533203125,0.26845687540769575,-0.059900049689412115,-0.019560732777416705
1638746300654144500,5.46914453125,0.2826420526266098,-0.025164251872897146,0.10467091930806637
1638746300664135400,5.479135498046875,0.07883914343714714,-0.06846387989521026,0.15817235400155186
1638746300674125300,5.489125244140625,-0.31231647540032864,-0.4104708524212241,-0.0672046781809302
1638746300684116500,5.499116455078125,-0.09316869756281375,-0.37450025211274623,0.04540522199943661
1638746300694107600,5.509107666015625,0.5103595058888196,0.12592881139218806,0.10722308800891041
1638746300704098600,5.5190986328125,0.6628250265508889,0.2590396432429552,0.11796645421087741
1638746300714088400,5.52908837890625,0.30791268748342987,-0.08901683858036995,0.04776975917369127
1638746300724079400,5.539079345703125,-0.44713878734409807,-0.1772188536465168,0.10183248101174831
1638746300734070500,5.549070556640625,-0.9183733205467463,-0.10988865395635365,0.18949717433080077
1638746300744061400,5.5590615234375,-0.8046955034404992,-0.19192367082536219,-0.15693696698769927
1638746300754051300,5.56905126953125,-0.2796738504707813,-0.6410635688588023,-0.48332814496979115
1638746300764042500,5.57904248046875,0.25179566346406934,-1.3178683131843805,-0.18725334092676638
1638746300774033700,5.58903369140625,0.3051315323323011,-2.0547414495036005,-0.0037201895669102666
1638746300784024600,5.599024658203125,0.036514497926831244,-2.7433313241690396,0.12619434872688726
1638746300794014500,5.609014404296875,-0.13527005571126938,-2.8841689508795736,0.4199221329860389
1638746300804005400,5.61900537109375,0.16287644003927707,-2.6539602653235197,0.3176828247390687
1638746300813996500,5.62899658203125,0.7180921557426452,-1.829940175949037,0.3223981628231704
1638746300823987500,5.638987548828125,0.9046189359605312,-1.2978735729038715,0.46605742282569407
1638746300833977300,5.648977294921875,0.4307669137358665,-1.245855800896883,0.5545886698462069
1638746300843968500,5.658968505859375,-0.3570341535270214,-1.6984481774717568,0.957588163473457
1638746300853959700,5.668959716796875,-0.7795604776620865,-1.7847382214367389,1.1470068657405674
1638746300863950600,5.67895068359375,-0.5354676436603069,-1.5779115805119275,0.979528192602843
1638746300873941500,5.68894140625,0.15173311473429202,-1.383043672928214,0.820685538124293
1638746300883931400,5.698931396484375,0.8403314649671315,-0.9967816713511943,1.1733252560846508
1638746300893922600,5.708922607421875,1.215323884510994,-0.5611117880046367,1.5053420188635587
1638746300903913500,5.71891357421875,1.1449807667404412,0.06997399219721555,1.117575165681541
1638746300913904400,5.728904296875,0.8703016558170318,0.48736733735799787,0.5308268321171402
1638746300923894500,5.73889453125,0.4198994827628135,0.5479018855586648,0.3608030410738662
1638746300933885700,5.7488857421875,-0.0770107589662075,0.7093938855022192,1.0921553316123782
1638746300943876600,5.758876708984375,-0.4782330137878656,1.09742523483932,1.6933267428047953
1638746300953867500,5.768867431640625,-0.8074725669384002,1.2107014854073523,1.19213546275571
1638746300963857400,5.778857421875,-0.9755705410182476,1.2701105367094279,0.5922042974153533
1638746300973848300,5.788848388671875,-0.8717693902820348,1.2112787007734178,0.6208249368198215
1638746300983839500,5.798839599609375,-0.5204156204789877,1.1746490520343185,0.5958483164735138
1638746300993830400,5.808830322265625,-0.09336626596152782,1.4658002820700406,0.06790463857725262
1638746301003820500,5.818820556640625,0.3924918358772993,1.2110083593994379,-0.37620588698685165
1638746301013811500,5.8288115234375,0.8113497006326913,1.1979577391684055,-0.1111027059212327
1638746301023802600,5.838802734375,1.0458791719973086,1.0957204767480493,0.12650383480116725
1638746301033793500,5.84879345703125,1.1174509547799825,0.7844520490959286,-0.11564641376547515
1638746301043783400,5.858783447265625,1.0306026924103497,0.7643161467790603,-0.37175679862350225
1638746301053774300,5.8687744140625,0.8690057707875967,1.1119032575249672,-0.24604513711333273
1638746301063765500,5.878765625,0.6799965261042118,1.435629600211978,-0.549310071856156
1638746301073756400,5.88875634765625,0.32673604589700694,1.8382886098384856,-1.2378491661824285
1638746301083747300,5.898747314453125,-0.5924503445982933,2.295959897112846,-1.72934059773311
1638746301093737500,5.908737548828125,-2.0758587640732524,3.6104099262863394,-1.9526951796106993
1638746301103728600,5.918728759765625,-3.226611684474349,3.8575086641058323,-1.680320107845962
1638746301113719600,5.928719482421875,-3.533762739935517,1.7618559430211782,-0.8711914442636072
1638746301123710500,5.93871044921875,-1.7156857279986142,0.05651596020907163,0.03587050093486905
1638746301133700400,5.948700439453125,0.7315922733068466,0.07823562458604574,0.5029799170315266
1638746301143691500,5.95869140625,2.1763789934426545,-0.45807577642202374,0.7669736024852841
1638746301153682400,5.968682373046875,2.5380150878071785,-1.218151655282825,0.6132962948806584
1638746301163673300,5.97867333984375,1.7208669300287962,-1.362432700445503,0.3027843116190284
1638746301173663500,5.98866357421875,0.2718447642803192,-0.6752575148835778,0.0038107173945754764
1638746301183654700,5.998654541015625,-1.0300807143628596,-0.16196838528364896,-0.19115444001853465
1638746301193645600,6.0086455078125,-1.4840139841526745,-0.15906974123269318,-0.29639088425487276
1638746301203636500,6.018636474609375,-0.9727490538567304,-0.16881781278699637,-0.27225122618936
1638746301213626400,6.02862646484375,-0.09402209952175616,-0.1045382328391075,-0.1249360009625554
1638746301223617500,6.038617431640625,0.5899333933413028,-0.1983040195122361,-0.1162685642518103
1638746301233608400,6.0486083984375,0.889930485394597,-0.30362989559769626,-0.19538257910758255
1638746301243599400,6.058599365234375,0.8652776901751756,-0.28018910651654005,-0.18473105590753255
1638746301253589500,6.068589599609375,0.4877110362291336,-0.25088760870844123,-0.24820253434292971
1638746301263580700,6.07858056640625,-0.01797930880486965,-0.21875030295252798,-0.29077852426581086
1638746301273571600,6.088571533203125,-0.384687299606204,-0.05764350293427705,-0.22432313464879988
1638746301283562500,6.0985625,-0.5437707771033048,0.10358575441986322,-0.23547720054350793
1638746301293553400,6.108553466796875,-0.6049474225997924,0.08112403950393199,-0.3643879503559321
1638746301303543600,6.11854345703125,-0.6082336046636104,-0.14254150801897048,-0.5071767841994762
1638746301313534500,6.128534423828125,-0.4587848014742136,-0.30388942331671714,-0.5415918256290256
1638746301323525400,6.138525390625,-0.08975216711759566,-0.2482429394185543,-0.4017196098845452
1638746301333516300,6.148516357421875,0.43622108748853206,-0.07871288670897483,-0.24141733118221162
1638746301343506700,6.158506591796875,0.887768923446536,0.031903789260983466,-0.1639250723093748
1638746301353497600,6.16849755859375,1.1057096635818482,0.1123597202450037,-0.06602488924525678
1638746301363488500,6.178488525390625,0.9272346723943948,0.16362316675335167,-0.0674812255334109
1638746301373479400,6.1884794921875,0.23069208515882492,4.370369631421566,-3.2900840396925806
1638746301383469300,6.19846923828125,-0.41061844419836996,10.151496872127055,-6.3771466759622095
1638746301393460200,6.208460205078125,5.921682543343305,4.8754170023769134,-1.884094083201885
1638746301403451400,6.218451416015625,9.89540380373001,1.9512895505964756,0.9238171190358698
1638746301413442300,6.2284423828125,9.232761732530593,2.3707784067317843,0.3549180016232654
1638746301423433200,6.23843310546875,4.9671816783607,-1.70346834372133,1.7403085664711893
1638746301433423400,6.24842333984375,-8.351194586333632,-12.130082425928116,8.020613555446266
1638746301443414500,6.25841455078125,-21.71088485819101,-14.977812282204628,12.25105858334899
1638746301453405400,6.268405517578125,-20.106839888513086,-5.586136583524942,7.130624617862701
1638746301463396400,6.278396240234375,-9.594186814492941,3.4301293469816443,1.1553956316404044
1638746301473386200,6.28838623046875,0.266643688505888,6.679991558662056,-4.142866113170981
1638746301483377200,6.298377197265625,5.649938316828012,5.541757343572378,-2.643771464264393
1638746301493368300,6.308368408203125,8.204156351417303,3.667363108868897,-0.5472037472266703
1638746301503359200,6.318359130859375,8.738658364915848,3.2585490837439894,0.22471863677240908
1638746301513349400,6.328349365234375,8.597963946068287,2.081498231264949,0.14165303474664687
1638746301523340300,6.33834033203125,7.653911994385719,-1.5420996778964995,0.10445011616423726
1638746301533331500,6.34833154296875,4.577101579800248,-5.093446589839458,0.4023062506660819
1638746301543322400,6.358322265625,-0.4952344174712896,-4.695927281188965,1.381273740646243
1638746301553312300,6.368312255859375,-6.174122934451699,-1.1179361079484225,1.8281679055795073
1638746301563303200,6.37830322265625,-10.263905107688903,0.527134699600935,-2.1122999045029283
1638746301573294300,6.38829443359375,-8.490610071286559,0.9514970069915055,-4.66167546749711
1638746301583285200,6.39828515625,-2.557994045996666,0.7071119120448828,-2.914044449183345
1638746301593275400,6.408275390625,2.2630127362787724,0.0958747416511178,-0.4991114781003445
1638746301603266300,6.418266357421875,4.848576341724396,-0.22501228595674036,0.036746114725619554
1638746301613257500,6.428257568359375,5.719298268780112,-0.07515519422739744,0.02584353937394917
1638746301623248400,6.438248291015625,4.752898291689157,-0.2052817495703697,-0.12867116890288888
1638746301633238300,6.44823828125,2.147539267927408,-0.5735542132094502,-0.35039186596833166
1638746301643229200,6.458229248046875,-1.0363678318083285,-0.4281581925421953,0.06566226647794246
1638746301653220400,6.468220458984375,-3.474489297711849,-0.1215416823491454,0.2575270467229187
1638746301663211300,6.478211181640625,-3.9889509782224892,-0.2907154689669609,-0.2543146605476737
1638746301673202200,6.4882021484375,-2.330599248817563,-0.348843832808733,-0.5810657578833401
1638746301683192300,6.4981923828125,0.1014537108272314,-0.3099123368680477,-0.4717310845479369
1638746301693183500,6.50818359375,2.0663561917126176,-0.23579788386523723,-0.010035364063084124
1638746301703174400,6.51817431640625,3.294318024000525,-0.32582302270531655,0.14670710326582193
1638746301713165300,6.528165283203125,3.570956452298164,-0.47267713322639465,-0.014061989230662583
1638746301723155200,6.5381552734375,2.6839497453957795,-0.4781909282118082,-0.06331628787368536
1638746301733146400,6.548146484375,0.7200292612850666,-0.32285482054948805,-0.08463862349614501
1638746301743137300,6.55813720703125,-1.594253643503785,-0.07173194178044795,-0.07249941902160643
1638746301753128200,6.568128173828125,-3.1577474070847034,0.13296031746417283,-0.10956935887411236
1638746301763119000,6.578119140625,-3.0662633016079663,0.37049861525595185,-0.14832257563844323
1638746301773109500,6.588109619140625,-1.904426677134633,0.4509966318160295,0.07829349225312471
1638746301783100400,6.598100341796875,-0.847221809002757,0.26030922478735447,0.19454086758643388
1638746301793091300,6.60809130859375,-0.24824410846233366,-0.015683014561235904,-0.20010610049813984
1638746301803082200,6.618082275390625,-0.13433891234099865,-0.1613274570316076,-0.8461249536767601
1638746301813072400,6.628072265625,-0.5477256522089242,0.06491700106859206,-1.5228481571987271
1638746301823063300,6.638063232421875,-1.4003227245092391,0.7075155244097113,-1.8358759957388042
1638746301833054200,6.64805419921875,-2.1859318346858023,1.4944836479797958,-1.7503452457085251
1638746301843045000,6.658045166015625,-2.2382430366814137,1.7552455849707125,-1.3825406918421388
1638746301853035500,6.668035400390625,-1.5824597453355789,1.2050801383942364,-0.29259996753931045
1638746301863026400,6.6780263671875,-0.6594038199305534,-0.013316285429894924,1.4801803973391652
1638746301873017300,6.688017333984375,0.20453882224857806,-1.6476561478674412,2.7894305197820066
1638746301883008300,6.69800830078125,1.1190244877070188,-2.3514681415840983,2.887960159856081
1638746301892998100,6.707998046875,2.145807329568267,-1.85018859872967,2.556266783812642
1638746301902989300,6.7179892578125,2.8241514122903344,-1.097419974142313,2.1315368121534584
1638746301912980200,6.727980224609375,3.3958097287505864,-0.04906272159367799,1.0846312197178603
1638746301922971100,6.73797119140625,3.2774861316651105,0.40699733109176156,-0.012997136478126049
1638746301932962300,6.74796240234375,2.246944814053178,0.0074801266223192215,-0.759060272077471
1638746301942952400,6.757952392578125,0.9549275659620762,0.1301058048158884,-1.3167870938189328
1638746301952943400,6.767943359375,-0.384707757872343,0.18265782983005047,-1.8017143445484338
1638746301962934300,6.777934326171875,-1.2849854497581719,0.13128595451116562,-2.1127472098790108
1638746301972925400,6.787925537109375,-1.5443097551614045,0.4789551905825734,-1.7993232116281985
1638746301982915300,6.797915283203125,-1.5456021330595016,0.5090817410379648,-0.9840542917251587
1638746301992906200,6.80790625,-1.441160930854082,0.5648945214137434,-0.08179222108907998
1638746302002897200,6.817897216796875,-1.039261215162277,0.6138359547153115,0.2832958403602242
1638746302012888300,6.827888427734375,-0.33758535669147965,0.5786316626042127,0.22074673746675252
1638746302022878500,6.83787841796875,0.2704845818430185,0.38026568377166986,0.3162162593178451
1638746302032869400,6.847869384765625,0.5689706848114728,0.017057517784833907,0.4475495601020753
1638746302042860300,6.8578603515625,0.6098387017726897,-0.23172435081601142,0.4900389677200466
1638746302052851500,6.8678515625,0.43292263046503066,-0.38080636651962996,0.25804712507426736
1638746302062841300,6.87784130859375,0.1957581344217062,-0.4925955934002995,-0.18389592025764284
1638746302072832300,6.887832275390625,0.08841244294643402,-0.48151685776412484,-0.5177867332801223
1638746302082823200,6.8978232421875,0.14471943657994268,-0.44538551393598313,-0.6440236607734113
1638746302092814300,6.907814453125,0.3127975369155407,-0.4280047555461526,-0.49018188332207496
1638746302102805500,6.917805419921875,0.5315823266595602,-0.4267831047967076,-0.0655146747007966
1638746302112795400,6.92779541015625,0.713691290435195,-0.44281887831836936,0.4348324826743453
1638746302122786300,6.937786376953125,0.8022656459450721,-0.38021220001876355,0.7342534553401172
1638746302132777500,6.947777587890625,0.6872936973750591,-0.1788061228379607,0.8040775176726281
1638746302142768400,6.957768310546875,0.3543582123160362,0.16580343340188264,0.609359832214564
1638746302152758300,6.96775830078125,-0.19381050748527048,0.4722480941593647,0.3751341661021113
1638746302162749200,6.977749267578125,-0.800219819331169,0.6256152398362755,0.20972966888993977
1638746302172740000,6.987739990234375,-1.1608879454463719,0.6630138271212578,0.14614442788176238
1638746302182731300,6.997731201171875,-1.255738312485814,0.6230488964796066,0.23052681159451602
1638746302192721400,7.007721435546875,-1.1562094322413206,0.6218705003499985,0.5585406954076141
1638746302202712300,7.01771240234375,-0.9732745390355586,0.5457195730835199,1.0248268854878841
1638746302212703200,7.027703125,-0.5974503448426723,0.23996055650264023,1.3491447643272578
1638746302222694400,7.0376943359375,-0.21293197206258774,-0.6033534314066171,1.5880140184618532
1638746302232685300,7.047685302734375,-0.18596388563811778,-1.0548197265610098,2.259087379528582
1638746302242675200,7.05767529296875,-0.7906950351387262,-1.0285168260470032,2.8087667961537837
1638746302252666000,7.067666015625,-2.5057003796577453,-1.4061493848361075,3.51833428465724
1638746302262657300,7.0776572265625,-3.1863463095813986,-2.802343192847073,2.2819259649328885
1638746302272648400,7.0876484375,-0.3963046721637249,-2.9789111813694236,2.0886498565852643
1638746302282638300,7.097638427734375,1.2185907773524522,-2.4289145154885947,3.8981659609258172
1638746302292629200,7.107629150390625,3.2785961387336253,-0.3378036756172776,3.2407886783868074
1638746302302620400,7.117620361328125,6.077170626696944,0.41956601302474733,1.9879232909888027
1638746302312611300,7.127611328125,7.601543509244919,-0.0008028408154845237,-0.24639234311580657
1638746302322601200,7.137601318359375,7.787658201530575,0.7790808774515986,-1.899519908131659
1638746302332592000,7.147592041015625,6.917704920759797,1.3152664601229132,-2.77064398624748
1638746302342583300,7.157583251953125,5.43768555920124,1.7812224684007465,-4.10949546622783
1638746302352574500,7.167574462890625,4.204793284773826,1.977142953777313,-4.676279454649984
1638746302362565400,7.1775654296875,0.18853695099651813,1.7431681936860084,-5.36010079973936
1638746302372555500,7.187555419921875,-8.626849848812817,0.0832282452415675,-6.590390198192
1638746302382546400,7.19754638671875,-9.649900518408417,-1.9119455283321438,-7.012849886831641
1638746302392537300,7.207537353515625,-3.626658465775847,-2.022399707216769,-6.511286266338825
1638746302402528500,7.217528564453125,-0.04770750759243965,-1.6244740097224712,-5.908881513959169
1638746302412518400,7.227518310546875,-0.42700902250707146,-0.44004269160330295,-2.7727026723429558
1638746302422509300,7.23750927734375,-0.28304011203348634,2.8442522432938215,2.846346585224569
1638746302432500500,7.24750048828125,-1.3538929817676544,2.59710469789654,5.829270217105746
1638746302442491600,7.25749169921875,-2.9369974547475572,0.5441135991916061,4.79934907721877
1638746302452481500,7.2674814453125,-2.988722381287813,-0.3828080617308616,-1.7881679036244749
1638746302462472400,7.277472412109375,-1.6680618070363997,0.788362208276987,-4.797810031083226
1638746302472463400,7.28746337890625,-0.18525836771726606,1.1661197086200117,-2.234907462517917
1638746302482454500,7.29745458984375,0.9686538934975862,0.3222393189996481,1.179032381685078
1638746302492445400,7.307445556640625,1.6652981875419615,-0.23172610438168048,1.9196853288039564
1638746302502435300,7.317435302734375,1.8760458013027905,-0.15262553352937103,1.4127441069260238
1638746302512426500,7.327426513671875,1.6884505150705575,0.7063862281188369,0.744717785404995
1638746302522417700,7.337417724609375,1.1333470275700093,1.5068946551330387,0.3363572031360119
1638746302532408600,7.34740869140625,0.15143968474566935,1.716085248710215,0.13057254554480313
1638746302542398500,7.3573984375,-1.633597811898589,1.4881724190063774,-0.15056662823818623
1638746302552389400,7.367389404296875,-3.312507760685682,0.964270417716354,-0.5288492484338582
1638746302562380500,7.377380615234375,-3.7184903617769476,0.3864620541937649,-0.3283007379304618
1638746302572371500,7.387371337890625,-3.1208383568823335,0.032922903175652024,0.7320392133567482
1638746302582361300,7.397361328125,-2.1721727739244696,-0.23472587071955203,1.6670418163388967
1638746302592352500,7.4073525390625,-0.9283125307589769,-0.3567880698114633,1.8757836432352661
1638746302602343700,7.41734375,0.42541853844523425,-0.39524785658717154,1.2551184270218014
1638746302612334600,7.42733447265625,1.6725673017621039,-0.48926352636814113,0.32947211979739366
1638746302622325500,7.437325439453125,2.6122850236326456,-0.6926321357935666,-0.23349976299069822
1638746302632315400,7.4473154296875,3.1821377519756555,-0.9452104740679264,-0.24070845226049423
1638746302642306600,7.457306640625,3.3588656072348355,-1.087123036533594,0.011217851845920085
1638746302652297500,7.46729736328125,3.126816262248158,-0.9621014031141996,0.24666845664344728
1638746302662288400,7.477288330078125,2.463110945731401,-0.6149217041254044,0.36271358740292486
1638746302672278500,7.487278564453125,1.4538555772542954,-0.38233869065344334,0.34867110659033057
1638746302682267400,7.497267333984375,1.4731699340552091,-0.45440380991101265,0.35996100075915455
1638746302692257300,7.50725732421875,0.2989578121334314,-0.3186465552046895,0.22763569326288996
1638746302702248400,7.51724853515625,-0.8105430604249239,-0.28310674752891063,0.12683927730061112
1638746302712239600,7.527239501953125,-1.658743359071016,-0.3890072086319327,0.16921002697497606
1638746302722230500,7.53723046875,-2.0812819581657647,-0.44309272682368755,0.40016083613522346
1638746302732220400,7.547220458984375,-1.9679419947117567,-0.4464923061341047,0.6357071563921869
1638746302742211300,7.55721142578125,-1.4200538454174993,-0.41920565527975556,0.7382659058518707
1638746302752202500,7.567202392578125,-0.6123328566759825,-0.3892357566908002,0.6099162970535457
1638746302762193400,7.577193359375,0.1979179428040981,-0.34823622230440376,0.287335032748431
1638746302772184300,7.587184326171875,0.8902911354005336,-0.3299515008121729,0.03147051241025328
1638746302782174500,7.597174560546875,1.4082114319324492,-0.36931057451516386,0.04978899004161358
1638746302792165600,7.60716552734375,1.7298837646991014,-0.47547494725137945,0.32380876027345656
1638746302802156500,7.617156494140625,1.9281570968121289,-0.5212547016516328,0.6549200255800038
1638746302812147500,7.6271474609375,1.960091281211376,-0.5746943231552839,0.7876669194892049
1638746302822137300,7.637137451171875,1.7564637285888194,-0.744286627446115,0.6097578185562044
1638746302832128500,7.64712841796875,1.2764900086134672,-0.7758139846101403,0.1763723198197782
1638746302842119400,7.657119384765625,0.5773468834906816,-0.6080670159250497,-0.3473364969857037
1638746302852110300,7.6671103515625,-0.2257768405884504,-0.2938683800399303,-0.8008814250450581
1638746302862100500,7.6771005859375,-0.9401081824928521,0.08591478091180324,-1.025700818778202
1638746302872091600,7.687091552734375,-1.3735779254466294,0.4447521844685077,-1.0071324580390006
1638746302882082600,7.69708251953125,-1.3109744620174169,0.7773264349997043,-0.773327574621886
1638746302892073500,7.707073486328125,-0.8116355318367481,1.0068073908030986,-0.4283861560791731
1638746302902064600,7.717064697265625,-0.1508019713640213,1.0151330283388496,-0.21481610530875622
1638746302912054500,7.727054443359375,0.4752443533658981,0.8397165479391813,-0.13821319649107752
1638746302922045400,7.73704541015625,0.8652402807742356,0.6111404320210219,-0.18757848122790455
1638746302932036400,7.747036376953125,0.9724281513392925,0.4578147873982787,-0.22134704144746065
1638746302942027500,7.757027587890625,0.8230746252179145,0.18211685482114554,-0.22011443091258406
1638746302952017700,7.767017578125,0.49894846955835814,-0.1440329156205058,-0.15923852192834018
1638746302962008600,7.777008544921875,0.1582218922317028,-0.418080158381164,-0.0696219638891518
1638746302971999500,7.78699951171875,-0.018611176967620848,-0.47935646485984323,0.26038798911198974
1638746302981990700,7.79699072265625,-0.00021568857729434965,-0.4742749238118529,0.6239329858377576
1638746302991981600,7.806981689453125,0.026622633987665175,-0.4747171146214008,0.7393653915263712
1638746303001971500,7.816971435546875,-0.1035194111853838,-0.38512247615307565,0.5457724723145365
1638746303011962400,7.82696240234375,0.06343640712201595,-0.2346595274850726,0.22636852287128567
1638746303021953300,7.836953369140625,2.0570517722725867,-1.6237719989329575,1.8392115699023008
1638746303031944400,7.8469443359375,2.6682629314422606,-1.3245330317705868,1.8023180095300078
1638746303041934600,7.8569345703125,1.7368752310216427,-0.1763648671656847,0.9485652643885463
1638746303051925500,7.866925537109375,-0.7733774051129817,0.08933481848835945,-0.5068711523164063
1638746303061916400,7.87691650390625,-4.906975339201092,0.25732787088900805,-0.8388958061408252
1638746303071907600,7.886907470703125,-6.961221406403183,1.0692068560928105,-1.2922706383302807
1638746303081897500,7.8968974609375,-4.913933487775921,1.5999278897479177,-0.9454656178727745
1638746303091888400,7.906888427734375,-1.6874094815850258,1.0528729764074087,0.5991192279029637
1638746303101879300,7.91687939453125,0.07672901941537856,0.7556289824545384,0.6085854868412017
1638746303111870500,7.926870361328125,0.691363138771057,1.0942968736857175,-0.6281587868392468
1638746303121861400,7.936861328125,0.6284235752552747,1.478397897836566,-2.268727899055183
1638746303131851500,7.9468515625,0.2203974856376648,1.1687898046121001,-3.03268602617681
1638746303141842400,7.956842529296875,-0.09695172323286533,0.33544980596750973,-2.2140502601891754
1638746303151833600,7.96683349609375,0.061955228653550146,-0.2438075873196125,-0.7800022300802171
1638746303161824500,7.976824462890625,0.5402753362029791,0.41404754186421633,-0.6390836470879614
1638746303171814400,7.986814453125,1.1665081234157084,2.0209628062814473,-1.8418021709173917
1638746303181805300,7.996805419921875,1.5320347954779863,2.3558660842821,-1.9555992304891348
1638746303191796500,8.00679638671875,1.6253139676779507,2.0373630292013285,-2.4826585267663
1638746303201787400,8.016787353515625,1.3900602736920118,1.3515496335119008,-3.23922595911473
1638746303211777500,8.026777587890624,2.2949930979073048,0.41218028668761253,-0.5192804789692164
1638746303221768400,8.0367685546875,2.6650404622644186,-0.4561994611561298,1.776887361805886
1638746303231759600,8.046759521484375,-0.534122658792138,-1.9747616115987299,2.186060575632006
1638746303241750500,8.05675048828125,-6.2745595771908755,-1.9128391161710023,5.211789476147294
1638746303251741400,8.066741455078125,-10.151873304224013,-0.7852709642633795,7.347935827922821
1638746303261731300,8.0767314453125,-8.84065042040348,-0.272559342290461,1.5893750776819884
1638746303271722500,8.086722412109374,-4.932102766194939,0.1561851257070899,-0.9864955473974346
1638746303281713400,8.09671337890625,-0.7676642881631851,0.11630962691456079,0.31565131891146303
1638746303291704300,8.106704345703125,3.186749045163393,0.4683499176770448,-0.7492879428647458
1638746303301694500,8.116694580078125,5.688662892019749,0.8039134131520986,-1.041157258041948
1638746303311685600,8.126685546875,6.4383513785094015,0.7833253831535577,-0.3017399901978671
1638746303321676500,8.136676513671874,6.135605864530802,0.5747065981149673,0.5462530954383313
1638746303331667500,8.14666748046875,4.675034130764007,-0.019583236870169638,1.018969391631335
1638746303341658400,8.156658447265626,2.198140743395686,-1.1010662216901779,0.8049107536263763
1638746303351648500,8.1666484375,-0.5862228483855724,-2.2582249174803493,-0.21871756972670553
1638746303361639400,8.176639404296875,-2.5578216120392083,-2.400656535384059,-1.297383012907952
1638746303371630000,8.186630126953125,-2.9983102938443422,-1.5841285553306341,-1.4895840393699704
1638746303381621200,8.196621337890624,-2.0997809069305657,-0.7320230659395456,-1.09818555168733
1638746303391611100,8.206611083984376,-0.8429366790294647,-0.20016981338411569,-0.45723797389101234
1638746303401602000,8.21660205078125,0.1119014550834894,0.034302374835312364,0.6501441164150834
1638746303411593200,8.22659326171875,0.6626718818157911,0.17618951059877871,1.2625101447083056
1638746303421584100,8.236584228515625,0.8314490703314542,0.3436345737278461,1.1161813732355832
1638746303431575000,8.246574951171874,0.5598030434936284,0.449388027575612,0.8071579480312764
1638746303441565000,8.25656494140625,0.1774760432779789,0.3769803784906864,0.74216042907238
1638746303451555800,8.266555908203125,0.05171265158057212,0.09807166717350482,0.8727784211941063
1638746303461547300,8.27654736328125,0.24733868405520915,0.0055211015090346335,1.0273236707396805
1638746303471538200,8.2865380859375,0.5582493843108415,0.045883799296617504,1.0234045975998043
1638746303481528000,8.296528076171874,0.7753536736220121,-0.144972534558177,0.9574775427058339
1638746303491519000,8.30651904296875,0.8184253381073474,-0.5651403128683566,0.8586464354671537
1638746303501510100,8.31651025390625,0.7059972288012504,-0.9040960811302066,0.5716634310267865
1638746303511501000,8.3265009765625,0.49180268945693967,-0.9041475190564989,0.5390159107264131
1638746303521491000,8.336490966796875,0.2158183411538601,-0.5179676428049802,0.7992191178560256
1638746303531481900,8.34648193359375,-0.18324235171973705,-0.03342997591495514,0.861094705402106
1638746303541473000,8.35647314453125,-0.7067915940493344,0.3286053469002247,0.7174009586080908
1638746303551464200,8.366464111328124,-1.2060691494315863,0.7542088865235448,0.28200412004925307
1638746303561455000,8.376455078125,-1.4638549932211637,1.1366422697231173,-0.34370150148421524
1638746303571445000,8.386445068359375,-1.3805144467115402,0.8408169103965163,-1.054761566632986
1638746303581436200,8.396436279296875,-1.0171750555604695,0.025887889972329138,-1.4315122280210255
1638746303591427000,8.406427001953125,-0.41046705302894115,-0.45248394776433704,-1.1070516527753322
1638746303601418000,8.41641796875,0.2807031935185194,-0.5678299903437495,-0.5731040582891553
1638746303611408000,8.426407958984376,0.7101023260325193,-0.5847112747788429,-0.9234824802540242
1638746303621399000,8.43639892578125,0.6956050141245126,-0.5514303519457578,-1.1740960212614386
1638746303631390200,8.44639013671875,0.40325405291020866,-0.5591571468055248,-1.023548974506557
1638746303641381000,8.456381103515625,0.06717910078167914,-0.6626862026020884,-1.0387191441748291
1638746303651372300,8.466372314453125,-0.2350193007081747,-0.9555173485487699,-1.0626998122863471
1638746303661362200,8.476362060546874,-0.4447662129938602,-1.1495178256481886,-0.705014574439451
1638746303671353000,8.48635302734375,-0.5292442391008139,-0.9679372696608305,-0.12122392163686453
1638746303681344000,8.496343994140625,-0.41417818250656124,-0.43093525604009625,0.07646963782683014
1638746303691335200,8.506335205078125,-0.30042554659843446,0.13955547794550657,0.027503216214478016
1638746303701325000,8.516324951171875,-0.3316244024604559,0.4967115042865276,-0.14726006097346545
1638746303711316200,8.526316162109374,-0.42430911589860915,0.6477125053539872,-0.34983204012848435
1638746303721307100,8.53630712890625,-0.48355976176857945,0.6629939533770084,-0.510119778848812
1638746303731298000,8.546298095703126,-0.5020686474055052,0.4832800680443644,-0.7561836206626147
1638746303741288200,8.5562880859375,-0.5077034384220839,0.19716741669774054,-0.9718986475724727
1638746303751279000,8.566279052734375,-0.5247264694154262,-0.16346154645085334,-1.0238150050316006
1638746303761270000,8.57627001953125,-0.46121232088208197,-0.31767420304119587,-0.903667918846011
1638746303771261000,8.586260986328124,-0.3547065873622894,-0.0897159267604351,-0.7524971141695976
1638746303781252000,8.596252197265626,-0.27498364682793613,0.298016731891036,-0.5166492536827921
1638746303791242200,8.6062421875,-0.1798936258137226,0.8646239024415612,-0.08427081309705972
1638746303801233200,8.616233154296875,-0.09589256956875324,1.4890309355318545,0.3781667387310415
1638746303811224000,8.62622412109375,-0.09850012171864508,1.8296026145577429,0.7033716295380145
1638746303821215200,8.63621533203125,-0.2641717454344034,1.865433221873641,0.9931498907200992
1638746303831205000,8.646205078125,-0.5564502259343862,1.606191334056854,1.2371294736057519
1638746303841196000,8.656196044921876,-0.8572019357472658,1.3513845060780643,1.3511369610577821
1638746303851187000,8.66618701171875,-1.1974205635517834,1.3403297358393669,1.2598543695025146
1638746303861178000,8.67617822265625,-1.4659616101115942,1.5222960762739182,1.0558385482147334
1638746303871169000,8.6861689453125,-1.6361089179366826,1.5766577810585498,0.8441860945686698
1638746303881159200,8.6961591796875,-1.6394716723680496,1.2843982975199817,0.6796637870185077
1638746303891150000,8.706150146484376,-1.375238552135229,0.4884454879835248,0.44878969635628163
1638746303901141200,8.716141357421876,-0.8080635185688734,-0.3915685835525393,0.05738390215002
1638746303911132200,8.726132080078125,-0.15857260536551473,-0.7757917727783322,-0.1506318754941225
1638746303921122000,8.7361220703125,0.39401393087804315,-0.8689490721642971,-0.4717353953968733
1638746303931113000,8.746113037109374,0.767261552581191,-0.5565495946556329,-0.22932795719876883
1638746303941104000,8.756104248046874,0.9771937583059072,-0.14144611399769783,0.2710359321154654
1638746303951095000,8.766094970703126,1.1956307575255631,-0.14102116658389569,0.661742345880717
1638746303961086000,8.7760859375,1.4894786792993544,-0.7760504237145185,0.5894432717368007
1638746303971076000,8.786076171875,1.8589286622852086,-1.741091095151007,0.1785050940647721
1638746303981067300,8.7960673828125,2.1973867101579905,-2.3779130809172986,-0.2937061752155423
1638746303991058200,8.80605810546875,2.415354338300228,-2.4586276628375052,-0.88053458827883
1638746304001049000,8.816049072265624,2.528328975573182,-2.183036697766185,-1.515349033614993
1638746304011039000,8.8260390625,2.6055805575579405,-1.2890820714220403,-1.7869897997558115
1638746304021030100,8.836030029296875,2.4546365473747254,-0.20147768111228942,-1.0034912519924342
1638746304031021000,8.84602099609375,1.9937047969996928,-0.21543489479422567,-0.30143567348904904
1638746304041012000,8.856011962890625,1.3203162908583879,-0.7203881577253342,-0.11473507107421756
1638746304051003000,8.8660029296875,0.5500730921179056,-1.0970695532694459,0.24258330622166394
1638746304060993300,8.8759931640625,-0.08783727340698241,-1.2452572504818438,0.519067566870898
1638746304070984200,8.885984130859375,-0.44274727438688277,-1.1657935454055666,0.4582497447494417
1638746304080975000,8.89597509765625,-0.45624914551675316,-0.6550374414145946,0.2951770149530843
1638746304090966000,8.905966064453125,-0.2904834137767553,0.1526665961921215,0.24563425475750117
1638746304100956200,8.9159560546875,-0.10984627611935138,0.7956964966878295,0.2721936142506078
1638746304110947000,8.925947021484374,-0.13261398824453352,1.1679045462101698,0.2642265443615615
1638746304120938000,8.93593798828125,-0.42513972150385376,1.251982174822688,0.22059739212393759
1638746304130929000,8.945928955078125,-0.9131266520649194,0.9839479087412357,0.1025345648664981
1638746304140920000,8.955920166015625,-1.4477870709955691,0.5144605114668608,-0.0450540704742074
1638746304150910200,8.96591015625,-1.832118396770954,0.061246203601360315,-0.12365312154516576
1638746304160901000,8.975901123046874,-1.8522230271667242,-0.18308979150652885,-0.07224960897900164
1638746304170892000,8.98589208984375,-1.4293869064301252,-0.14489888480007648,0.08681246040388942
1638746304180883200,8.99588330078125,-0.7090764901161194,0.10224281537830829,0.22583017821088433
1638746304190873000,9.005873046875,0.058061143824458115,0.5759183119922876,0.3355658335626125
1638746304200864000,9.015864013671875,0.6107312666982412,1.1364321341037749,0.36830855786576866
1638746304210855000,9.02585498046875,0.8094996888518333,1.4140823697924614,0.26704876217544077
1638746304220846000,9.03584619140625,0.6169371356010437,1.240077802017331,0.13043101818226277
1638746304230837000,9.0458369140625,0.10295067138671875,0.6325631592780351,-0.03606879998594522
1638746304240827100,9.0558271484375,-0.48361470682621,-0.13663228397518395,-0.1979070926165208
1638746304250818000,9.065818115234375,-0.9209861333936452,-0.7775771948903799,-0.2705667071685195
1638746304260809200,9.075809326171875,-1.0270336017519235,-1.036350296151638,-0.07940700645297766
1638746304270800100,9.085800048828125,-0.7206500235319138,-0.8980389730483292,0.2739253699466586
1638746304280790000,9.0957900390625,-0.18128478791117666,-0.4377972507640719,0.48355413574539124
1638746304290781000,9.105781005859376,0.3925941272079944,0.13500526729524134,0.5103511033866555
1638746304300772000,9.115772216796875,0.7702554737001657,0.6391597810640931,0.40086365064233537
1638746304310763000,9.125762939453125,0.9295680837780237,0.9242027573525905,0.15750921391770242
1638746304320754200,9.135754150390625,0.8505874860435724,0.853197376281023,-0.21013123542815446
1638746304330744000,9.145744140625,0.6254062732607126,0.45579877140074965,-0.6073901395767927
1638746304340735200,9.1557353515625,0.3714870417714119,-0.11394319004416466,-0.84661492915079
1638746304350726100,9.16572607421875,0.21238310600817203,-0.5450917965739965,-0.7733212910115719
1638746304360717000,9.175717041015625,0.18619009560942648,-0.7991890149787068,-0.3874571296457201
1638746304370707000,9.18570703125,0.299424845123291,-0.900602101534605,0.1684320283398032
1638746304380697600,9.195697509765624,0.5239502243459224,-0.8312956333354115,0.6169694304354488
1638746304390689000,9.20568896484375,0.778645700904727,-0.7873404640138149,0.8681218275599181
1638746304400680000,9.215679931640626,0.9981833548426627,-0.7470628141611814,0.9820040811970829
1638746304410670800,9.2256708984375,1.0826648880809544,-0.7397089442670345,0.9520293603025376
1638746304420660700,9.23566064453125,0.9557757072240114,-0.7329200147792696,0.9160979229606687
1638746304430652000,9.24565185546875,0.6431944434076547,-0.6824491799533366,0.7259145199313759
1638746304440642800,9.255642822265624,0.20334113689661024,-0.6561717061415314,0.5079502527900039
1638746304450633700,9.2656337890625,-0.2313718841165304,-0.6673284754499793,0.30392127975970507
1638746304460623600,9.27562353515625,-0.5254436777740716,-0.5749152724295854,0.17023045606389642
1638746304470614800,9.28561474609375,-0.558545152387023,-0.4314937667056918,0.12574527151882647
1638746304480606000,9.29560595703125,-0.3432400214523077,-0.2671507612451911,-0.03689538700319826
1638746304490596900,9.305596923828125,0.029282208585739135,-0.015565817922353743,-0.03641147594377398
1638746304500588000,9.315588134765624,0.447058707845211,0.3018219693928957,0.4188025543715805
1638746304510578000,9.325577880859376,0.8742126917809248,0.7884364425569772,1.4125702116638421
1638746304520568800,9.33556884765625,1.169871462368965,1.595022289788723,2.7974364238440987
1638746304530559700,9.345559814453125,1.5598691433429717,1.3236568334579466,3.125298551161587
1638746304540551000,9.355551025390625,2.0114169793009755,0.03018383360058069,1.9325661454260348
1638746304550540800,9.365540771484374,2.0849065784037113,-0.2559071904361248,2.205528515559435
1638746304560532000,9.375531982421874,1.9384265618920324,-0.4017088692948222,2.179959190016985
1638746304570523000,9.38552294921875,0.3944961614370346,-0.5208750546842813,2.395596767776459
1638746304580513800,9.395513671875,2.207467959189415,-1.8049200087219475,2.0805618271976707
1638746304590505000,9.4055048828125,2.4123060566455123,-3.1171973700314757,1.1796432801250367
1638746304600494800,9.415494873046875,2.6080904945522545,-3.256422885370254,-0.4883315792802721
1638746304610485800,9.42548583984375,3.0527900720506906,-2.657485809101164,-1.7186536378934978
1638746304620476700,9.4354765625,2.5980834798008203,-2.6188497889757154,-1.6258324385941028
1638746304630467800,9.4454677734375,0.090016371011734,-2.2104896450981495,-2.57391349966228
1638746304640458000,9.4554580078125,-1.754495058864355,-0.4428597948506474,-4.387400553460419
1638746304650449000,9.465448974609375,-2.230606842714548,0.9009376170992851,-4.688609359391033
1638746304660439800,9.475439697265625,-1.3875935913175343,1.855389966765046,-5.553792064759135
1638746304670431000,9.485430908203124,0.6861772605657577,2.88984524295032,-6.185490131640434
1638746304680422000,9.495421875,2.8562895948290823,3.616765432792902,-5.878519108921289
1638746304690411800,9.505411865234375,4.405702226087451,3.8507428232327103,-4.938333769538998
1638746304700402700,9.515402587890625,5.265967056536674,3.1092329670235515,-5.1804684552103275
1638746304710393900,9.525393798828125,6.197778535327315,1.5949375341147183,-4.740106030133366
1638746304720384800,9.535384765625,7.126006310412287,0.28855624510645866,-3.4303286689460277
1638746304730375000,9.545375,7.56802702409029,-1.8431015630781649,-2.3211425614252685
1638746304740365800,9.55536572265625,5.633160200506448,-5.586432351601124,-0.6344599328100681
1638746304750357000,9.56535693359375,-3.881355111378431,-8.086537103208899,4.667669739475846
1638746304760348000,9.575347900390625,-15.082890613269806,-2.7213486249417067,11.524361096346377
1638746304770338800,9.5853388671875,-22.452664178991316,2.5629221500486135,9.87582115138173
1638746304780328700,9.59532861328125,-21.722717919325827,4.552480641023815,-1.5010226943597196
1638746304790319900,9.60531982421875,-9.979177480959892,4.252025576069951,-6.647277622061967
1638746304800310800,9.615310791015625,0.48797757821083065,1.9880513012826442,-3.686215401116013
1638746304810301700,9.6253017578125,6.062154259350896,0.7450900527834892,-0.48711146290078755
1638746304820291800,9.635291748046875,8.552142106091976,1.5018626523151992,0.28718101123049855
1638746304830283000,9.645282958984374,9.201582165890931,2.191563410831988,0.6091385906793176
1638746304840274000,9.65527392578125,9.246484552934765,1.776571281594038,1.1826469189204274
1638746304850264800,9.665264892578126,7.758969282662868,1.0246797321021557,2.6905633183166384
1638746304860255700,9.675255859375,3.4123540363162754,0.45410570374727244,5.07835540369153
1638746304870246000,9.685245849609375,-2.647389070239663,0.456952617610991,5.40971151060462
1638746304880236800,9.69523681640625,-8.136845148688554,0.6819570125222205,3.961483710104227
1638746304890227700,9.705227783203124,-10.949705936157702,1.1060104000940918,2.150810398552567
1638746304900218600,9.715218505859376,-9.629176294809579,1.8825582519367337,1.1031792683213948
1638746304910209000,9.725208984375,-4.962161804372072,1.6476836203962564,1.4202273022882639
1638746304920200000,9.735199951171875,-0.29118074839115143,0.6687561701655388,1.504052855835855
1638746304930190800,9.74519091796875,2.9431536392897364,-0.0324164149582386,0.9702455466032027
1638746304940181800,9.755181640625,7.682284102389216,-0.1848643999636173,0.16160510492920874
1638746304950173000,9.7651728515625,8.026528916969895,-0.2907856115937233,-1.180608252699673
1638746304960162800,9.775162841796876,5.2905216520786285,-0.5225470795497298,0.43805005648136136
1638746304970153700,9.78515380859375,1.4508470430880784,-0.3382105028524995,1.9083077563516795
1638746304980144600,9.79514453125,-2.8972669173836705,0.07645750899761915,1.6326552703514694
1638746304990135800,9.8051357421875,-5.903070781853795,0.5131386152133345,0.9759025494515895
1638746305000126700,9.815126708984375,-6.55532882168293,0.7278884503528475,0.6168846747614443
1638746305010116900,9.825116943359374,-4.850971127906441,1.1175889019459486,0.37406975174099205
1638746305020107800,9.835107666015626,-2.041254483681917,1.0792027649283409,0.6430231784939766
1638746305030099000,9.845098876953125,0.4245645519644022,0.7418500479489565,0.6399155678674578
1638746305040089900,9.85508984375,0.9943722721219063,0.2926785857334733,0.9406731228992342
1638746305050079700,9.865079833984375,-0.19566870257258415,-0.41682372857928274,1.0585567211322486
1638746305060070700,9.875070556640624,1.279073010843992,-0.6346814666062593,0.9814278887443244
1638746305070061800,9.885061767578126,1.6514420961469412,-0.4828203415781259,0.41911461599543687
1638746305080052700,9.895052734375,2.7232021438539027,-0.5365332270652056,-1.1839534714743494
1638746305090044000,9.9050439453125,3.1785178079128262,-0.670736238066852,-1.358781922852993
1638746305100033800,9.91503369140625,2.6611744344860315,-0.9981757560580968,-0.7780470043592155
1638746305110025000,9.92502490234375,1.4500631992340087,-1.2954951533347367,-0.16049875112250447
1638746305120016000,9.935015869140624,-0.0036509237229824065,-0.9584107319027185,0.3221953337274492
1638746305130006800,9.9450068359375,-1.116830777055025,-0.5854577092319727,0.20228928975611923
1638746305139996700,9.95499658203125,-1.511902692553401,-0.4480921425461769,-0.4112964895904064
1638746305149987800,9.96498779296875,-1.213480886992812,-0.41325083852857347,-0.7490674319818615
1638746305159978800,9.974978759765625,-0.4886906949162483,-0.4885492406189441,-0.746876205547899
1638746305169970000,9.984969970703125,0.26073183411359785,-0.611509265333414,-0.7806566023357212
1638746305179960800,9.9949609375,0.7701549359351396,-0.7208259646207094,-0.8309718082085251
1638746305189951000,10.004950927734376,1.01473116953969,-0.7234399465113878,-0.8411850130565464
1638746305199942000,10.01494189453125,0.9892840090721845,-0.5829997946858406,-0.8224379347495734
1638746305209932800,10.024932861328125,0.7813152123749255,-0.43789311235398054,-0.6052822075121105
1638746305219923700,10.034923828125,0.5389414572507143,-0.2485650109797716,-0.4530541488677263
1638746305229913900,10.044913818359374,0.23257892181873321,-0.11132336293458937,-0.33985359388440844
1638746305239904800,10.05490478515625,-0.06955810487270354,-0.0049903556331992146,-0.3058145461603999
1638746305249896000,10.06489599609375,-0.3125666507691145,-0.01743336535990238,-0.3145103321827948
1638746305259886800,10.074886962890625,-0.41051907547712324,0.007315583710372447,-0.37144612523913384
1638746305269878000,10.0848779296875,-0.3166641492158174,0.12008943771421908,-0.4464661487795412
1638746305279868000,10.094867919921874,-0.11290332560241222,0.21674422382712363,-0.4220004005648195
1638746305289858800,10.10485888671875,0.1505751768708229,0.23608546863496302,-0.41410950118452305
1638746305299849700,10.114849609375,0.3722498428374529,0.2293763263851404,-0.4475834623716771
1638746305309841000,10.1248408203125,0.7742237928092479,0.19085984098613262,-0.45541810152009127
1638746305319831800,10.134831787109375,1.3693541702717542,0.24820465323477983,-0.6490877392299473
1638746305329822000,10.144822021484375,1.0010761536747217,0.25204876144230365,-0.6235390180841088
1638746305339812900,10.154812744140624,0.06813362502753734,0.2676625101596117,-0.24229294497296214
1638746305349804000,10.164803955078124,-0.2841530417114496,-0.09196429020911455,0.635434476930648
1638746305359795000,10.174794921875,-0.05468143825829029,-0.4035755399495363,0.8560090727008879
1638746305369784800,10.184784912109375,-0.13459551745057105,-0.5865674240395427,0.35183497744873166
1638746305379776300,10.1947763671875,-0.02761982833147049,-0.023041268369555473,0.4153587705932557
1638746305389767200,10.20476708984375,-0.5281470915138721,0.5944540856361389,1.0040282814785837
1638746305399758000,10.214758056640624,-1.0408978764533996,0.9391545350298285,0.8750516268230975
1638746305409749200,10.224749267578124,-1.4695686946928501,0.8248878121197223,1.0810917935453355
1638746305419739100,10.2347392578125,-1.5723720665633678,0.5197115638628602,2.655169933374226
1638746305429730300,10.244730224609375,-1.6072440579801797,0.7203308745801449,4.3942564107045525
1638746305439721200,10.25472119140625,-1.1768582525163889,1.0443465556025504,5.078471139025688
1638746305449712400,10.26471240234375,-0.14785364295244216,0.39657121414542196,5.2037949702620505
1638746305459703300,10.274703369140624,0.7028858187824487,-0.34313363846838474,5.527346540904045
1638746305469693200,10.284693115234376,0.6709551415145397,-0.769424868094921,6.061047759413719
1638746305479684000,10.29468408203125,-0.12979893082380295,-1.065604739947617,7.215173955640196
1638746305489675300,10.30467529296875,-0.5937818854629993,-1.9210890581220388,8.295891216784716
1638746305499666200,10.314666259765625,-0.600817190927267,-3.2409298404231666,8.624653215551376
1638746305509656000,10.324656005859374,-0.9477303479343652,-4.2694449129045005,8.28731978779435
1638746305519647200,10.334647216796874,-1.6459546046465634,-4.740699612112343,7.893999099877476
1638746305529638400,10.344638427734376,-2.1016782649844883,-4.562853858739137,5.85582095490098
1638746305539629300,10.35462939453125,-2.053823457875848,-4.406979698677361,4.210668898808956
1638746305549620200,10.3646201171875,-1.497062850818038,-3.684595690959692,3.5525738233894106
1638746305559610000,10.374610107421875,-1.0822621524989604,-1.5049135643184184,2.9052403804808855
1638746305569601300,10.384601318359374,-0.5921984156638384,1.0482570070445536,1.2761448484376072
1638746305579592200,10.39459228515625,0.38710722022950644,2.3863315113030374,-2.0090046574622393
1638746305589583000,10.4045830078125,1.6599550729483366,1.9500188000082967,-6.025866555917263
1638746305599573200,10.4145732421875,1.8978209952592848,1.1807619819566606,-7.922696202051639
1638746305609564400,10.424564453125,0.6781804165929556,0.1022867641178891,-7.16483025432527
1638746305619555300,10.434555419921875,1.3572276791483162,-0.24710392545126378,-6.176793614965677
1638746305629546200,10.444546142578124,1.8706039025098085,0.026608459331840275,-4.282901775848865
1638746305639537200,10.454537109375,1.2285679814875126,0.0034732290685176846,-0.8372644786119461
1638746305649527300,10.46452734375,2.685891527113318,2.0342785071894527,0.6911030265301465
1638746305659518200,10.474518310546875,4.700697564330697,3.31751009901762,2.205140685285628
1638746305669509000,10.484509033203125,6.052138476771116,2.350438067883998,5.357184620031714
1638746305679500000,10.4945,9.336140273940563,6.395299587768316,8.379849602931737
1638746305689491200,10.5044912109375,13.35896254210472,9.687124625909329,6.858478240287304
1638746305699481300,10.5144814453125,14.672073431628942,9.698370827066897,3.188464032387733
1638746305709472300,10.52447216796875,11.217183152878285,8.928868802082539,-2.5431957053154703
1638746305719463200,10.534463134765625,0.9074790015667676,8.489688864788413,-6.946045464581251
1638746305729454300,10.544454345703125,-12.765225080305337,7.59663703250289,-9.215440010851621
1638746305739444200,10.5544443359375,-13.581244526314734,6.82295742957294,-5.306195022028684
1638746305749435100,10.56443505859375,-1.5617238312989472,1.9500369201868772,-5.552914112880826
1638746305759426000,10.574426025390625,-3.8620121130049228,-6.765941995409131,-5.208596233063936
1638746305769417200,10.584417236328125,-12.594110973274708,-4.883477559235692,0.7787304565787315
1638746305779408100,10.594408203125,-9.216305103248358,3.469286176110804,1.5865815014407039
1638746305789398300,10.604398193359375,-1.8738900845736264,4.201658201618493,1.1486632546454667
1638746305799389200,10.61438916015625,-0.4188888444155454,0.5927648173749447,1.6073893116697668
1638746305809380400,10.62438037109375,-0.836121153795719,-0.613005056849122,1.6054902000501752
1638746305819371300,10.634371337890625,-1.185414483937621,-0.3615694588690996,0.8374456803977489
1638746305829362200,10.644362060546875,-0.6759422822773457,-0.6036880701884627,0.015609072542190551
1638746305839352000,10.65435205078125,0.06372048476040362,-0.840300777567923,-0.23509616533666847
1638746305849343200,10.66434326171875,1.8650071054160593,-1.7179273694455623,-1.1170055491000412
1638746305859334100,10.674334228515624,3.16567995364964,-0.7704958583272993,-0.1587052918344736
1638746305869325000,10.684324951171876,3.6613428256660696,0.7739106352068483,0.8180854386284947
1638746305879315200,10.694315185546875,3.1338024678736924,1.4947285626515745,0.06786386817544698
1638746305889306400,10.704306396484375,1.5369237365633248,0.37254677995741364,-0.5419777562066912
1638746305899297300,10.71429736328125,0.39098260035812854,-1.172725098234415,0.08084989873766898
1638746305909288200,10.7242880859375,0.03531096735596657,-1.5971844362586736,0.8102329715624451
1638746305919279000,10.734279052734376,-0.5127086993634701,-1.4677978856280445,1.260863400414586
1638746305929269200,10.744269287109375,-1.2214227859079838,-1.1162208284631372,1.2135396314427256
1638746305939260200,10.75426025390625,-1.1895692655295134,-0.5629910258799791,0.639018034505844
1638746305949251000,10.7642509765625,-0.3493593811154365,0.0183387897670269,0.5344628505319357
1638746305959242000,10.774241943359375,0.45680502583384514,0.2354310963794589,0.43061581482738254
1638746305969233200,10.784233154296874,0.6141051270455121,-0.0028638649985194206,0.3009609686493873
1638746305979223300,10.794223388671876,0.23730828842818735,-0.5004001296713948,0.10181728344261645
1638746305989214200,10.804214111328125,-0.3549456568151712,-0.852613438913226,-0.19510989964604378
1638746305999205000,10.814205078125,-0.8848018903344869,-0.8635805308684706,-0.19261545248180625
1638746306009196300,10.8241962890625,-1.0519114378988743,-0.7308703887730836,0.056169923250377174
1638746306019186200,10.834186279296874,-0.5984890402406454,-0.585298427017033,0.3405386535391211
1638746306029177000,10.844177001953126,0.209956755644083,-0.6006738369338214,0.4797878420144319
1638746306039168000,10.85416796875,0.7191764438480138,-0.8309783840797841,0.40819413966089485
1638746306049159200,10.8641591796875,0.6887976721972227,-1.042141885165125,0.12799363496750593
1638746306059150300,10.874150390625,0.4157493773460388,-1.0555310897007584,-0.10050415501743555
1638746306069140200,10.88414013671875,0.13452011412680148,-1.0408074216909706,-0.28271336429715155
1638746306079131100,10.894131103515624,-0.11057575943768023,-1.1844001923285423,-0.5758315104916691
1638746306089122300,10.904122314453126,-0.04016366808414459,-1.1313380258351564,-0.6268357215419411
1638746306099113200,10.91411328125,0.11735621335804462,-0.4920736153528094,-0.4871136548578739
1638746306109103000,10.92410302734375,-0.3207821059286594,0.5718856954753399,-0.6135545074254274
1638746306119094000,10.934093994140625,-0.9281056100100278,1.8581072628997266,-1.3025579313278197
1638746306129085200,10.944085205078125,-0.4389706784576177,3.304465908527374,-1.467845524162054
1638746306139076400,10.954076416015624,0.22417525061070917,4.263222677388787,-0.7117533081099391
1638746306149067300,10.9640673828125,-0.29235680643320083,3.8303935704261063,0.29648177740871906
1638746306159057200,10.97405712890625,-2.022943750965595,2.454795829589665,0.5896218431740999
1638746306169048300,10.98404833984375,-3.853078280442953,2.108578253631294,0.5629007172480225
1638746306179039200,10.994039306640625,-4.563827672207355,3.2476047881424424,0.44496290460973975
1638746306189030100,11.004030029296874,-3.6345167780607937,4.422836316239834,0.019183423897624015
1638746306199021000,11.01402099609375,-1.6807728200495242,4.937655139625072,-0.6226233645439148
1638746306209011200,11.02401123046875,0.026346155133843422,3.1976524242326616,-0.2764966817393899
1638746306219002400,11.03400244140625,1.9761352380394934,0.31435835649147625,-0.09508943649232388
1638746306228993300,11.0439931640625,4.0487551663219925,-1.2434750432401895,-0.15152239459306
1638746306238984200,11.053984130859375,5.360998625361919,-2.238118825779855,0.14416414078474044
1638746306248974300,11.063974365234374,5.397863836422562,-3.8473721777558323,0.2850684029906988
1638746306258965200,11.07396533203125,3.8353731124043464,-6.1690691581934685,-0.17076514746248722
1638746306268956200,11.0839560546875,1.136256777536869,-7.662893173220753,-1.0999088683485985
1638746306278947000,11.093947021484375,-1.6776666707277297,-6.249404677668213,-2.754813087648153
1638746306288938200,11.103938232421875,-3.5999773795992134,-1.4236295119471847,-2.993435381284356
1638746306298928400,11.113928466796875,-4.34932508982718,2.216252592539042,-0.7589617801390588
1638746306308919300,11.123919189453124,-3.664878598576784,2.6259187044486403,1.0960241358697413
1638746306318910200,11.13391015625,-1.717071629399061,0.9660333357356489,2.419311843754351
1638746306328901400,11.1439013671875,0.4062643406420946,-0.5965414133042096,3.3402748885333535
1638746306338892300,11.153892333984375,1.668018552416563,-1.2087651105172932,3.7151527417868375
1638746306348882200,11.163882080078125,1.5706412972480057,-1.0995669230431317,3.331675987014174
1638746306358873000,11.173873046875,-0.040162499040365215,-0.39574294662773607,2.2123821808464825
1638746306368864300,11.1838642578125,-2.4390239677011967,0.5162324895754457,0.7954094964399934
1638746306378854400,11.1938544921875,-4.301529319429397,1.1309710922189056,-0.13991948895230888
1638746306388844500,11.203844482421875,-3.934466523841023,1.1173629842355848,-0.020601912393420935
1638746306398835500,11.21383544921875,-1.410157305303216,0.4682999410554766,0.7788578823506832
1638746306408826400,11.223826416015624,1.7411463324695824,-0.5158065192483365,0.7758964021965861
1638746306418817500,11.233817626953124,4.224972733971477,-1.0261052348606288,-0.33860812386795874
1638746306428808400,11.243808349609376,5.005708100631833,-0.9438776180289685,-1.8376127564035354
1638746306438798300,11.25379833984375,3.436737366944551,-0.8858668892174959,-3.0110052325055
1638746306448789200,11.263789306640625,1.3720306960046291,-0.8943440640531479,-3.5575147869229315
1638746306458780400,11.273780517578125,-0.05171206705868244,-0.384178181040287,-2.413142215208709
1638746306468771600,11.283771484375,-0.5689151552319527,0.3292774009428918,0.0009067395813763141
1638746306478762500,11.293762451171874,-0.5210112482845783,0.4458198137000203,1.142541849155724
1638746306488752400,11.30375244140625,-0.5044359610587358,0.16188509091436862,1.185819265346229
1638746306498743600,11.31374365234375,-0.7181354103624821,-0.10898045307025313,1.0633351875804364
1638746306508734500,11.323734375,-0.9346195219486951,-0.25233897656053306,0.750999715218693
1638746306518725400,11.333725341796875,-1.0075719454348087,-0.22333047034963965,0.262034295014292
1638746306528715300,11.34371533203125,-0.8495031979382037,-0.09917027606517076,-0.004766629879921674
1638746306538706400,11.35370654296875,-0.47803544538915155,0.1280738605968654,0.11835282317996024
1638746306548697300,11.363697265625,-0.05796995840966701,0.4080952093310654,0.39668139652162787
1638746306558688500,11.3736884765625,0.35930502106845374,0.6699430418625474,0.6457973193824291
1638746306568679700,11.3836796875,0.6987643549382686,0.7906342448621988,0.6193256381727754
1638746306578669600,11.393669677734374,0.8633511060267687,0.7291131698422133,0.17262319641932844
1638746306588660500,11.403660400390624,0.8613906196087598,0.4750343638770282,-0.6766466311544179
1638746306598651400,11.4136513671875,0.881127585735917,0.11077245105355978,-1.6964450209558009
1638746306608642600,11.423642578125,1.0693769519627094,-0.24236849442720412,-2.3648992855653166
1638746306618633500,11.433633544921875,1.485579918295145,-0.5066141818806529,-2.298161206549406
1638746306628623400,11.443623291015625,1.9146984803020952,-0.630185616491735,-1.4294230006568134
1638746306638614500,11.453614501953124,2.0890520076453685,-0.7306872872911393,-0.6553241494014859
1638746306648605400,11.46360546875,1.8977514371544122,-0.8812355761550367,-0.2604202839463949
1638746306658596600,11.4735966796875,1.4359908347398043,-1.023713225157559,-0.15915902695134282
1638746306668586500,11.48358642578125,0.8983955314010381,-1.0236192632637917,-0.2729854587480426
1638746306678577400,11.493577392578125,0.4940203655064106,-0.768007402512431,-0.41547114492654796
1638746306688568300,11.503568359375,0.2524853992938995,-0.21394217201843857,-0.4306701753631234
1638746306698559500,11.5135595703125,-0.03259118700325489,0.2703124401465058,-0.2321542666658759
1638746306708550400,11.52355029296875,-0.331588746625185,0.3608165946751833,0.10231894935443997
1638746306718540500,11.53354052734375,-0.40973406257927414,0.2044479290947318,0.38774493361115453
1638746306728531500,11.543531494140625,-0.20351064824461937,0.01182546235024929,0.4279164927408099
1638746306738522600,11.553522705078125,0.07052139694690704,-0.19260434656590222,0.32165041319578885
1638746306748513500,11.563513427734375,0.28714462474286556,-0.4722197448477149,0.21288331061527133
1638746306758504400,11.57350439453125,0.35326223377287386,-0.7289756610676645,0.3872705940976739
1638746306768494300,11.583494384765626,0.3908440686702728,-0.6885954276233911,0.6670258392415941
1638746306778485500,11.593485595703125,0.47118134171068665,-0.3985036435127258,0.6946852689310908
1638746306788476400,11.603476318359375,0.5732961467951536,-0.09648585928678512,0.5938457444794476
1638746306798467300,11.61346728515625,0.5156394921183586,0.04247194502651691,0.5201914563342929
1638746306808458500,11.62345849609375,0.46512861754298207,-0.05785831472873688,0.49297787071615456
1638746306818448600,11.63344873046875,0.5410083266526461,-0.17638912482410668,0.4606584863916039
1638746306828439600,11.643439453125,0.7392465874522924,-0.3413261506550014,0.3697071726173162
1638746306838430500,11.653430419921875,1.0272726712048053,-0.40578459430113434,0.1650580218620598
1638746306848421600,11.663421630859375,1.0726607959389687,-0.26905031125620005,0.009614654432982206
1638746306858411500,11.67341162109375,1.2056997315973044,0.013153642214089632,-0.030529432167857883
1638746306868402400,11.68340234375,1.1867045237481593,0.12539338934123515,-0.19894027158915994
1638746306878393300,11.693393310546876,0.7884855423957109,-0.20351824702918528,-1.060233568303287
1638746306888384300,11.70338427734375,0.7061532961457967,-0.36454701337516304,-0.911038739874959
1638746306898375400,11.71337548828125,1.1008651461601258,-0.0037847792357206343,-0.28985242239683867
1638746306908365600,11.723365478515625,1.1726257295131683,0.4458481630116701,-0.8404436931699514
1638746306918356500,11.7333564453125,0.9530617720901966,0.882689574355632,-1.1265303332924843
1638746306928347400,11.743347412109374,0.32427520874142646,1.2242042333200573,-1.2542179710507393
1638746306938338600,11.753338623046876,-0.4707745144754648,1.660865027400106,-1.379082075820863
1638746306948329500,11.76332958984375,-1.2466817303270101,2.2439275120586157,-1.458442320522666
1638746306958319400,11.7733193359375,-1.87341720636487,2.4342969391793012,-1.5681076871171593
1638746306968310300,11.783310302734375,-2.22954009026587,2.3057924320802092,-1.5720412271738051
1638746306978301400,11.793301513671874,-2.2292758863717315,2.0676582142218947,-1.1672165639460086
1638746306988292400,11.803292236328126,-1.9481231955200433,1.8404704839222132,-0.7854381375238298
1638746306998282500,11.813282470703125,-1.3722931463330983,1.6346511203438043,-0.8312132157489657
1638746307008273400,11.8232734375,-0.5905249294936656,1.5223188726276158,-0.7960141843348741
1638746307018264600,11.8332646484375,0.25704525455534455,1.546032048909366,-0.713195031350851
1638746307028255500,11.84325537109375,0.8905132537186146,1.4134645301550626,-0.39511838498860596
1638746307038246400,11.853246337890624,1.1148995167315006,0.8284848136983811,-0.25259295132160187
1638746307048236300,11.863236328125,0.8779512937873601,-0.10471958075538278,-0.15913433090150356
1638746307058227500,11.8732275390625,0.28595103104412556,-1.0749579669654368,0.4930903911799192
1638746307068218400,11.88321826171875,-0.46108781771957874,-1.9971777338072656,1.1348720451802015
1638746307078209300,11.893209228515625,-1.2349030297279358,-2.6357167526245115,1.416106569096446
1638746307088200400,11.903200439453125,-1.7624164995133875,-2.598255913758278,1.3636691103726624
1638746307098190600,11.913190673828124,-1.7981261107981203,-1.8594672992065548,1.036413716776669
1638746307108181500,11.923181396484376,-0.432953610125184,-0.9508061021178961,0.8955231908351182
1638746307118174500,11.933174560546876,1.8871154768496752,-0.5902602872081101,2.860860848267376
1638746307128165400,11.943165283203125,-4.3828930129081005,-0.7775466536216438,-0.8191834629982709
1638746307138156300,11.95315625,-7.183471241909265,-0.32208120582848787,-1.94543410256654
1638746307148147500,11.9631474609375,-4.286813396334648,1.5747957865789532,0.235302209302783
1638746307158138600,11.973138671875,-1.3263631698071956,1.852168228239566,1.808492606511712
1638746307168128500,11.98312841796875,-0.0013549217402935027,0.272684429974854,1.7457707773998379
1638746307178119400,11.993119384765626,1.0214052404761313,-0.39030338592231273,0.6427393931165337
1638746307188110300,12.0031103515625,1.6715666002869605,-0.12842369694784284,0.633880087095499
1638746307198101500,12.0131015625,1.6848808398902415,-0.1904736181475222,1.3123887127295135
1638746307208092400,12.023092529296875,0.9967845939606428,-0.9063608111917972,1.959104608261585
1638746307218082300,12.033082275390624,-0.8007283533751964,-0.9914213133618235,2.5463489086493847
1638746307228073500,12.043073486328124,-0.6619342151910066,-0.3653492696687579,2.164084160014987
1638746307238064600,12.053064697265626,-0.6011556291013955,-0.24970015248954294,1.8327438351929186
1638746307248055600,12.0630556640625,-2.3501713797718287,-0.6308204072639346,0.7463868145957588
1638746307258046500,12.07304638671875,-3.1418080796748398,-0.08454349255859851,-0.3718424310803413
1638746307268036400,12.083036376953125,-1.672427016508579,0.6745566731378436,0.4442418968588113
1638746307278027500,12.093027587890624,-0.2642792974621057,0.16877075877487657,0.981479765062034
1638746307288018400,12.103018310546876,0.42312838168144223,-0.3846326468095183,0.4249386459738016
1638746307298009300,12.11300927734375,0.16848901922404766,-0.3886626329779625,-0.12465747628211975
1638746307307999500,12.12299951171875,-0.6278279474496841,-0.09553630347698927,0.8620993524000048
1638746307317990700,12.13299072265625,-1.150814879721403,0.6390177422448993,1.1901137476697563
1638746307327981600,12.142981689453125,-0.013592472022771834,1.3231056293159722,1.8271867855876682
1638746307337972500,12.152972412109374,1.2196177823126315,1.6340607532352207,3.778758075734973
1638746307347963600,12.162963623046876,1.7073200507134199,2.002430832029879,3.5581200593397018
1638746307357953500,12.17295361328125,1.8332535382807253,1.7232529483824968,0.7763295329168438
1638746307367944400,12.1829443359375,1.6403431945055722,0.9772048642218112,-1.0917527421608566
1638746307377936000,12.192935791015625,-0.15767536426484585,0.7023658865615725,-0.18275515272468326
1638746307387927000,12.202927001953125,-0.6698088940888642,0.6829416396453977,0.026281857725977895
1638746307397918000,12.21291796875,5.5126399701595306,-0.9551897240296006,-0.30591128453314304
1638746307407907800,12.222907958984376,4.310302408471704,-2.4119325471580026,-1.5117223675504325
1638746307417899000,12.23289892578125,0.091737787976861,-2.607859900666773,-2.9497447081178425
1638746307427890200,12.24289013671875,-2.0064988121211527,-2.538903268818557,-4.4162581068933005
1638746307437881000,12.252881103515625,-1.1718231809586286,-3.5955160162761803,-4.354846191336215
1638746307447872000,12.2628720703125,-0.01688742191493511,-4.070912929855287,-2.5598721148282286
1638746307457862000,12.27286181640625,0.8872311633080243,-3.552536121727526,-0.918733678291738
1638746307467853000,12.28285302734375,1.1741185984194278,-1.8883023485466837,-0.5735816857382655
1638746307477844000,12.292843994140625,0.9381792602568865,0.4162999969661236,0.22023440403044223
1638746307487835000,12.3028349609375,-0.6461538777351379,0.3337713513612747,1.0528808674529193
1638746307497825000,12.312824951171875,-1.5035311700493097,0.39373832880705595,3.802832778805494
1638746307507816200,12.322816162109374,-3.590720306432247,0.7504612244278193,4.54019808255583
1638746307517807000,12.33280712890625,-7.01572398096323,1.6922086985602973,1.5721531631156802
1638746307527798000,12.342798095703126,-11.224066482651233,5.019288297694922,-1.430737736517191
1638746307537789000,12.352788818359375,-14.48824480445385,7.754211274480819,-2.0789698818311093
1638746307547778800,12.36277880859375,-12.66228960648775,7.627993709275126,1.6617261742740868
1638746307557770000,12.37277001953125,-11.259296785986423,8.085040142649412,5.259557189494371
1638746307567761000,12.382760986328124,-9.533184356519579,9.299365079250931,9.559669627863169
1638746307577751800,12.392751708984376,-9.31424876012802,11.964001052367687,14.280684588557481
1638746307587743000,12.402742919921875,-5.3682922895014284,10.714356380581854,12.222311796814202
1638746307597733000,12.412733154296875,-2.575011816293001,6.974951825591922,4.410473678272962
1638746307607724000,12.42272412109375,-0.33490941548049447,5.151695949712395,1.0293903940111397
1638746307617715000,12.43271484375,1.0496639512330292,2.2590328728623685,-2.779016970056295
1638746307627706000,12.4427060546875,1.2894231399446725,-0.5239565079562366,-5.4306034919857975
1638746307637697000,12.452697021484376,1.3414964415311812,-2.8782071198657153,-5.281140075749159
1638746307647687000,12.46268701171875,1.5390642557233571,-4.194187719607353,-3.226669552141428
1638746307657677800,12.472677734375,1.930935913875699,-5.093800225582719,-0.8926111027806997
1638746307667669000,12.4826689453125,0.872645588594675,-6.4837541162908074,1.9675825137495992
1638746307677660000,12.492659912109374,-0.4220698125392198,-7.797097061005235,5.263081271967292
1638746307687650000,12.502650146484376,-0.25582886450290676,-8.787363651373981,6.798316909313201
1638746307697641000,12.512640869140625,-0.02023322521150112,-9.14776055933237,5.08204841299057
1638746307707632000,12.522632080078125,-1.2040835285723208,-8.765953783598542,0.33858839625418186
1638746307717623000,12.532623046875,-4.61492073058486,-7.944220636117458,-10.606741224515437
