time,seconds_elapsed,z,y,x
1639426089865126100,0.013126220703125,-0.04756839138269424,0.01646568937152624,0.05573299313783645
1639426089875115300,0.023115234375,-0.041913142099976534,0.03713979021832347,0.018396657434105873
1639426089885105200,0.033105224609375,0.011415127983689308,0.16375453804805873,-0.03308013956397771
1639426089895095000,0.043094970703125,0.008394318857789039,0.1437108440592885,-0.014426000237464903
1639426089905085200,0.053085205078125,0.017646131327748296,-0.05632511381208896,-0.04147796555310487
1639426089915075000,0.063074951171875,0.07672609680593014,-0.353174263228476,-0.09447744207382201
1639426089925064200,0.073064208984375,0.17570143482089043,-0.3031029491141438,-0.21722148595005272
1639426089935054000,0.08305419921875,0.09031506169736385,-0.23278642708957195,-0.13193565059155224
1639426089945044000,0.0930439453125,-0.056064417049288745,-0.34693405366465446,0.07657324433177709
1639426089955034400,0.103034423828125,-0.13579086471498011,-0.4175796615131199,0.13318272804319858
1639426089965024300,0.113024169921875,-0.07830196782052516,-0.3169537798121571,0.05159866981208324
1639426089975014100,0.12301416015625,0.00601531476676464,0.01016717374920845,-0.05936608894318342
1639426089985003300,0.133003173828125,-0.045832945892214774,-0.022955343651771543,-0.09521744678616523
1639426089994993200,0.1429931640625,0.22553251043856143,-0.7263511577829718,-0.07561287486702203
1639426090004983300,0.1529833984375,0.06229775848090648,-0.04157674975246191,-0.009365209716558456
1639426090014973200,0.16297314453125,0.22748247546255587,0.3061430474624038,-0.029775545060634612
1639426090024963000,0.172963134765625,0.23123978216946123,0.14942513005286454,-0.14544687407165766
1639426090034952200,0.1829521484375,0.04298690881133079,0.2971773584574461,-0.10194763182401656
1639426090044942000,0.192942138671875,-0.038050621452927584,0.05279942390397191,-0.1318611240506172
1639426090054932200,0.20293212890625,-0.044994156980514524,0.02719312735199928,0.1650280651152134
1639426090064922000,0.212922119140625,-0.09820143103301525,0.09194251676872373,-0.1808387977093458
1639426090074912000,0.222912109375,0.0165916538387537,0.4659463636666536,-0.42419045795500276
1639426090084901000,0.232901123046875,-0.1096013614475727,-0.19831775577664373,-0.03417933297753334
1639426090094891000,0.24289111328125,-0.1838461628317833,-0.6361991776928305,0.3082534637451172
1639426090104881200,0.252881103515625,-0.28870880531966686,-0.159377784268558,0.13618833959996698
1639426090114871000,0.26287109375,-0.10031097053289413,0.089443831820786,-0.14814853424578905
1639426090124861200,0.272861083984375,0.027738486275076864,-0.051657560392469166,-0.23201310462951658
1639426090134851300,0.282851318359375,-0.008144143489003181,0.06320215997472405,-0.1413669112816453
1639426090144840200,0.292840087890625,-0.01984977885186672,-0.08881474013701081,0.1291626787468791
1639426090154830300,0.302830322265625,0.02683598447740078,0.010116904866695404,0.2447568508684635
1639426090164820200,0.3128203125,0.16967442961633206,0.06089110655337572,0.17765139984488487
1639426090174810000,0.32281005859375,0.24777298381924628,-0.25075667580515143,0.08608253869414328
1639426090184800300,0.33280029296875,0.2563420747220516,-0.34442513958364723,0.17285159834772348
1639426090194789000,0.3427890625,0.1113397295475006,-0.4214078414991498,0.2593099846169352
1639426090204779300,0.352779296875,-0.11287643759548663,-0.47456090114638205,0.6077268241852521
1639426090214769200,0.36276904296875,-0.14009703747630117,-0.2751031815543771,0.9790458159133791
1639426090224759000,0.372759033203125,-0.014753917017579077,-0.28955110136270523,0.552580691024661
1639426090234749200,0.382749267578125,0.0590770428687334,-0.3703307113431394,0.11315817714631557
1639426090244738000,0.392738037109375,0.08133212929666042,-0.376910235863924,0.014245382973551749
1639426090254728200,0.402728271484375,0.04220014234781265,-0.2533851246125996,0.03280278392732143
1639426090264718000,0.412718017578125,-0.04349135120213032,-0.3526997775845229,-0.2500663554534316
1639426090274708000,0.4227080078125,-0.06107084703445434,-0.2729094709023833,-0.4436041834771633
1639426090284698400,0.432698486328125,0.012167407655715941,0.02257598894536495,-0.42507425505220886
1639426090294687000,0.44268701171875,-0.02659925311207771,0.09536649986803532,-0.43308805015981194
1639426090304677400,0.452677490234375,0.007404723298549651,0.14681319398880005,-0.4823509705007076
1639426090314667300,0.462667236328125,-0.08870587293505668,0.3652750353887677,-0.2822475003510713
1639426090324657200,0.4726572265625,-0.15239596255719662,0.4292135468140244,-0.10083207179754972
1639426090334647300,0.482647216796875,-0.18906711235046386,0.31567090039476753,-0.20813655447959897
1639426090344636200,0.49263623046875,-0.2233423069179058,0.2494081838056445,-0.31586335422694684
1639426090354626300,0.502626220703125,-0.17107669762969016,0.027373744615912434,-0.568627278201282
1639426090364616200,0.5126162109375,-0.25006197153925896,0.08772884459644556,-0.38341216510385273
1639426090374606000,0.522606201171875,-0.16225684683620928,0.26976065148264167,-0.5055839620500803
1639426090384596200,0.53259619140625,-0.21012509794831274,0.37045579902753234,-0.40593467029631136
1639426090394585000,0.542585205078125,-0.21601590955257413,0.3461763671651482,-0.07795826894938945
1639426090404575200,0.5525751953125,-0.09354805226922035,0.05366363951787352,0.020648820275068282
1639426090414565000,0.562565185546875,0.008443418696522712,-0.36064693719670177,-0.08853548480421304
1639426090424555000,0.572554931640625,-0.016407529443502426,-0.42985140632614494,-0.3106739688903093
1639426090434545200,0.582545166015625,0.04735270280539989,-0.25158918110653755,-0.2815355526894331
1639426090444535300,0.592535400390625,0.14572422970831395,0.10011237922087311,0.17492109809815884
1639426090454524000,0.60252392578125,0.2406441548526287,-0.17784224624186754,0.4275099577665329
1639426090464513800,0.612513671875,0.2957552166998386,-0.5522700176402926,0.48588557436764235
1639426090474504000,0.62250390625,0.1288373923152685,-0.6291242708705366,0.7739151652514934
1639426090484494000,0.632494140625,0.18293606224954126,-0.6401033455245196,0.5787020974919199
1639426090494484000,0.64248388671875,0.16052958465218542,-0.7119898933447897,0.16455109525322914
1639426090504473000,0.65247314453125,0.0775467655390501,-0.3515963463872671,0.4613759870111942
1639426090514463000,0.662462890625,0.06379471904039383,-0.20023440305292606,0.6994044064074755
1639426090524452900,0.672452880859375,0.1634159537434578,-0.266932734580338,0.7016404948964715
1639426090534443000,0.682443115234375,0.23283026623129843,-0.47542336319461465,0.2767965414687991
1639426090544433000,0.692432861328125,0.22566344334185123,-0.25192981123775243,-0.07319236972182988
1639426090554422000,0.702422119140625,0.13581249202489853,0.036313276266306635,0.06271539937108754
1639426090564412000,0.712411865234375,-0.11245441279113293,0.33285087551549075,0.4861012629449367
1639426090574401800,0.72240185546875,-0.09180617703795432,0.4273293405026197,0.37990532602667804
1639426090584392000,0.732391845703125,0.13054711884260176,0.46288113087713717,0.039124095903337
1639426090594381800,0.7423818359375,0.12476093665659427,-0.24064064772129057,-0.45986879731863733
1639426090604371000,0.752370849609375,0.1893091044127941,-0.1099672721505165,-0.7277285836160182
1639426090614360800,0.76236083984375,0.08718377793431281,0.6252709564432501,0.3813289290890097
1639426090624350700,0.772350830078125,-0.0763046565234661,0.27967414273172614,-0.46410278162658214
1639426090634341000,0.782341064453125,-0.24089023856818675,-0.004842763856053352,-0.2320057981058955
1639426090644331000,0.7923310546875,-0.2977934445291757,0.3706408002056181,-0.10297346774041652
1639426090654321000,0.80232080078125,-0.08513970488607883,0.651532355903089,-0.1987576084986329
1639426090664310000,0.81231005859375,-0.12355857512950896,0.8457558281034231,-0.6742082980915903
1639426090674300000,0.8222998046875,-0.00507248095870018,0.825268920391798,-0.6654179656535386
1639426090684290000,0.8322900390625,0.1346276661545038,-0.05292465771883726,-0.36105128021389243
1639426090694280000,0.842280029296875,-0.11994389176368712,-0.20633155088424682,-1.052027465493977
1639426090704269800,0.852269775390625,-0.24053894091248512,-0.11216185958534479,0.4121612897261977
1639426090714259000,0.862259033203125,0.15440379524827003,0.0586632013708353,-0.3706467915549874
1639426090724248800,0.872248779296875,-0.2578577399820089,-0.0585686549551785,-0.31515286787003277
1639426090734239000,0.882239013671875,-0.032583588218688966,-0.33546734162420033,-0.2120163185223937
1639426090744228900,0.892228759765625,-0.14228198029994965,-0.40105917321443557,-0.42251930987238884
1639426090754218800,0.90221875,-0.10104337646067142,-0.21945435956865547,-0.41819414014965295
1639426090764207900,0.912207763671875,-0.1360229199051857,-0.04692132565081119,-0.2670642520055175
1639426090774197800,0.92219775390625,-0.25499825889766214,-0.15946867742240428,-0.03174596835076809
1639426090784188000,0.93218798828125,0.4355705146253109,-0.8365129295922815,-0.48852790556997056
1639426090794177800,0.942177734375,0.6157862120002507,-0.36003245856016874,-0.5881722288876772
1639426090804168000,0.95216796875,0.0028121348112821578,-0.1294941026583314,0.4967039055019617
1639426090814158000,0.962157958984375,-0.5057774387955666,-0.6880275646075606,1.3021926051467656
1639426090824147000,0.97214697265625,-0.23216391127705574,-0.40802287474721666,0.8824456825971603
1639426090834137000,0.98213720703125,0.06936930430233477,-0.12156330965906381,0.38099692065566776
1639426090844127000,0.992126953125,-0.17847089953422546,-0.34357173762470483,0.6429474829092622
1639426090854116900,1.002116943359375,-0.4515536811769008,-0.47966246206909413,0.7198603344589471
1639426090864107000,1.01210693359375,-0.03165127580463886,-0.32883944791704417,0.7739768323108553
1639426090874095900,1.022095947265625,0.4076543336957693,-1.168278640219569,1.3970827196747064
1639426090884086000,1.0320859375,-0.021864625805616378,-2.1392890337154267,2.368995907229185
1639426090894076000,1.042075927734375,-0.10619301430881023,-0.7132908929407596,0.8680839797675609
1639426090904065800,1.052065673828125,0.7254688219904899,0.7936616298593581,-0.9347720821619033
1639426090914056000,1.062055908203125,0.9196452401787042,0.8892392882600426,-0.21587562429904936
1639426090924044800,1.072044921875,1.4309282906532286,0.5725730932176113,-0.031234511697292328
1639426090934035000,1.082034912109375,0.22641864562332628,1.1003019593194125,0.43540217232108114
1639426090944024800,1.09202490234375,0.15734452487528322,1.703962849240005,0.7120172197431326
1639426090954014700,1.1020146484375,4.48017323744297,0.1811903876259923,-1.7231830980166791
1639426090964005000,1.112005126953125,2.147905178630352,-0.4296268037900328,-1.8488894988298414
1639426090973993700,1.12199365234375,0.24072131174206732,0.1667841150023043,0.07816431291550398
1639426090983983900,1.13198388671875,-4.0996489027351135,0.2281767413370311,0.4713324406191706
1639426090993974000,1.14197412109375,-4.596625195437669,-0.11183891124129294,1.51356448828578
1639426091003964000,1.1519638671875,-2.1910417250454426,0.3075251494705677,0.32476211547553535
1639426091013954000,1.1619541015625,-1.0909697750896215,0.554194994353503,-0.18721739283055067
1639426091023943000,1.17194287109375,-0.7085200252771378,0.34196634825468064,-0.2354083000257611
1639426091033932800,1.181932861328125,0.19442542451322078,-0.16319354316443205,-0.59152387740314
1639426091043923000,1.1919228515625,1.2583476182013749,-0.6944109820343554,-0.9138008980646729
1639426091053912800,1.201912841796875,1.1878384962141513,-1.2137991591617465,-0.8316977843955159
1639426091063903000,1.211903076171875,0.4222159430116415,-1.1611794757388532,-0.5548576960459352
1639426091073892900,1.221892822265625,0.03569090658426285,-0.851483558100462,-0.9817448457390069
1639426091083881700,1.2318818359375,-0.3595949439257383,-0.2392757891088724,-1.128088084128499
1639426091093871900,1.241871826171875,0.15584171909689903,0.045517157941311594,-0.8395815233826637
1639426091103861800,1.25186181640625,0.7239648471683263,0.10360869690403342,-0.4206286738201976
1639426091113852000,1.261851806640625,0.07496025617718696,0.5268878852330148,-0.04663257183730602
1639426091123842000,1.271842041015625,-0.337370252636075,0.8073866422206163,0.34456045640110966
1639426091133831000,1.281830810546875,-0.007356207981705666,0.561310817708075,1.0502528570368885
1639426091143821000,1.291821044921875,1.4098779038399456,0.5057034967765212,1.3493699513852595
1639426091153811000,1.30181103515625,1.189213876220584,0.2583767954200506,0.6421420117452741
1639426091163800800,1.31180078125,-0.29563655875623224,-0.49112259823828935,0.0317845467954874
1639426091173791000,1.321791015625,-1.1379694266736506,-1.070386713527143,-0.5328530772477388
1639426091183779800,1.33177978515625,-1.463983003515005,-1.0987639360971748,-0.39075376003831624
1639426091193770000,1.34177001953125,-1.2086585814028978,-0.5810660501442849,-0.13895049778968094
1639426091203759900,1.351759765625,-0.613689531981945,-0.30654665982723234,-0.21014555621445177
1639426091213749800,1.361749755859375,0.3386825042784214,-0.1550834480755031,-0.010508242271840572
1639426091223740000,1.371739990234375,0.9053010730057954,0.13710077826976774,0.25285306356251236
1639426091233729800,1.381729736328125,0.9017430882632732,0.3388090532675385,0.12811141612827778
1639426091243719000,1.391718994140625,0.6116372756272555,0.5211019953079521,-0.06309329277276993
1639426091253708800,1.401708740234375,0.2523825234413147,0.8215446391716599,-0.09998363827466965
1639426091263699000,1.411698974609375,-0.36777065159678457,-0.10772183131128549,0.7525505979225039
1639426091273688800,1.421688720703125,-0.848307266151905,-0.37116818508058785,0.7784367343291639
1639426091283678700,1.4316787109375,-0.5095107801049947,-0.33957287724688645,0.7215425884574651
1639426091293667800,1.441667724609375,0.11983692425787448,-0.5136781289175153,0.7806222616747022
1639426091303657700,1.45165771484375,0.29864275483489033,-0.33439474395662544,0.7707607928737997
1639426091313647900,1.46164794921875,0.12899813583493233,0.4740606965392828,0.18742986653745172
1639426091323638000,1.471637939453125,0.24613281539678572,0.4764123742319643,-0.03307107947468758
1639426091333628000,1.4816279296875,0.41202772647440433,0.030311990024894476,0.17426380323320625
1639426091343617000,1.491616943359375,0.31023674651682376,0.12336407547071575,0.1662526384741068
1639426091353607000,1.50160693359375,0.14980010084509848,0.4903961836598813,0.22473054640591142
1639426091363596800,1.5115966796875,0.20773849507272243,0.4927845401011407,0.02578326055407524
1639426091373587000,1.5215869140625,0.09794482592344284,0.4526151729285717,-0.13838701868802308
1639426091383576800,1.531576904296875,0.10101707297563552,0.3117101800702512,-0.3351613444149494
1639426091393566000,1.54156591796875,0.29418519090414047,0.010573416462540626,-0.3647515960365534
1639426091403555800,1.551555908203125,0.1313257019996643,-0.40877603120207784,-0.16991671393960714
1639426091413545700,1.561545654296875,-0.15632219609022138,-0.9628934302747248,-0.26417086865156886
1639426091423535900,1.571535888671875,-0.3463169446796179,-0.9651746730796992,-0.617816841045022
1639426091433525800,1.58152587890625,-0.48983168164491653,-0.5209162634775042,-0.5285813912779093
1639426091443516000,1.591515869140625,-0.3021358576476574,-0.12642653178125618,-0.24159926362037656
1639426091453504800,1.6015048828125,0.028964813199639318,-0.14765914329364896,-0.23514848004579542
1639426091463494700,1.61149462890625,0.1843897681891918,-0.14145152082517742,-0.21736118668168783
1639426091473484800,1.62148486328125,0.16544775183200836,-0.17646788914874195,0.07570172219425439
1639426091483474700,1.631474609375,0.00934241336286068,-0.04603694403171539,0.18097323774397372
1639426091493464800,1.64146484375,-0.25730828940570355,0.10782573007717727,0.08643675895929336
1639426091503453700,1.65145361328125,-0.3199719585895538,0.2980306142859161,-0.00930792657136917
1639426091513443600,1.661443603515625,-0.06501403170228004,0.5148509720891714,0.014020634306967258
1639426091523433700,1.671433837890625,0.304941562718153,0.5747971990078687,0.0152867087200284
1639426091533423600,1.681423583984375,0.5202683209627866,0.5746504840135574,-0.1974608466863632
1639426091543413800,1.691413818359375,0.2395727262288332,0.2816002884887159,-0.2342971239134669
1639426091553402600,1.701402587890625,-0.15636778879761695,-0.041511867822706695,-0.23720541257560251
1639426091563392500,1.711392578125,-0.2545347330391407,-0.5237009257599711,0.05293897850513458
1639426091573382700,1.721382568359375,-0.014863807132840155,-0.5265902174606919,0.15345073230713605
1639426091583372500,1.73137255859375,0.11070669234097004,-0.22389073458090422,0.35955402739346026
1639426091593362700,1.74136279296875,-0.1035538979768753,-0.1451036135919392,0.19717004704624413
1639426091603352800,1.751352783203125,-0.16634440841078757,-0.25473098626360297,0.1656587642341852
1639426091613341700,1.761341796875,-0.19653087235987185,-0.10686682191714644,-0.27061317665874957
1639426091623331800,1.771331787109375,-0.053610009634494776,0.1923537328056991,-0.2571791100680828
1639426091633321700,1.78132177734375,0.09017126931250095,-0.08582914845496416,-0.08561258309483527
1639426091643311600,1.7913115234375,0.06957739409506321,-0.30088410402089355,-0.24902035353183744
1639426091653301800,1.8013017578125,-0.06915420024693011,-0.43425738620012994,-0.4021393696665764
1639426091663290600,1.81129052734375,-0.20775953786075113,-0.7236407297804951,-0.4982376909404993
1639426091673280800,1.82128076171875,-0.4234638972461223,-0.5866999643780291,-0.7391568633422255
1639426091683270700,1.831270751953125,-0.6135562609910965,-0.43883565390110013,-1.0235101038008927
1639426091693260500,1.841260498046875,-0.3468324929863214,-0.6997874143756926,-0.6787295749083161
1639426091703250700,1.851250732421875,0.19556816480755804,-0.8153596669264137,-0.0014306173250079155
1639426091713239600,1.861239501953125,0.38928222618103026,-0.35577889276891944,0.13279519003033638
1639426091723229700,1.871229736328125,0.4248492141246795,-0.1506035261824727,0.45919192097038025
1639426091733219600,1.881219482421875,0.35411212860047814,0.07577931747511028,0.30216742182970047
1639426091743209700,1.891209716796875,0.042455578413605685,0.15559358955472707,0.32267186519801616
1639426091753199600,1.90119970703125,-0.3798433667063713,0.27551585400849576,0.17887655772566793
1639426091763189800,1.911189697265625,-0.4100596412718296,0.42431116172522304,0.09052022888064384
1639426091773178600,1.9211787109375,-0.12874445333480833,0.5316735120743513,0.06800181534141302
1639426091783168800,1.931168701171875,0.06768354317247867,0.37023791849315163,0.05963409222960472
1639426091793158700,1.94115869140625,-0.004686696511507034,0.11821984445005655,-0.00697217710018158
1639426091803148800,1.951148681640625,-0.29327450580000874,0.2155781026571989,-0.15657763215601445
1639426091813138700,1.961138671875,-0.21646540688574312,-0.06128244395852089,-0.39310821420997377
1639426091823127800,1.9711279296875,-0.05467442399561405,-0.20725465707853435,-0.21862316944152116
1639426091833117700,1.98111767578125,-0.09660276366472244,-0.22505554057657717,-0.13796411710083484
1639426091843107600,1.991107666015625,0.0021487024664878845,-0.41572599647045133,0.015370587611198425
1639426091853097700,2.00109765625,0.0034317280143499372,-0.3256472277469933,0.005931143614649772
1639426091863087600,2.011087646484375,0.10666180086433887,-0.21227321589291095,0.020645897665619847
1639426091873076700,2.02107666015625,0.12073767248988151,-0.08088204744160175,0.10162877513319253
1639426091883066600,2.031066650390625,-0.07963467772901058,0.032278467792272565,0.1738604831293225
1639426091893056500,2.041056396484375,-0.16357026752233506,0.178305772100389,0.21671938164681195
1639426091903046700,2.051046630859375,-0.1097539216607809,0.2768861194483936,0.17207476875633002
1639426091913036500,2.06103662109375,0.08334756077229977,0.2611640880510211,-0.07350128954052924
1639426091923026700,2.071026611328125,0.4088210393875837,0.2947666440539062,-0.16924626733213663
1639426091933015600,2.081015625,0.6583996113240719,0.3784183023393154,0.08290683126747608
1639426091943005400,2.09100537109375,0.410443087631464,-0.2645367793545127,0.1480225697785616
1639426091952995800,2.100995849609375,-0.10824117901027203,-0.3473531558595598,-0.16517448784857988
1639426091962985700,2.11098583984375,-0.25125965689122676,-0.32715047191679475,0.024736381849646567
1639426091972975600,2.1209755859375,-0.1754272940546274,-0.25294804836958645,0.0488730442404747
1639426091982964700,2.13096484375,-0.04675415239036083,-0.18299480669945478,0.08002689191699028
1639426091992954600,2.14095458984375,0.08592237969636916,-0.2111677388690412,0.11628449247330426
1639426092002944800,2.15094482421875,0.18347440690994263,-0.22769655660465357,0.13257628658264875
1639426092012934700,2.1609345703125,0.12384966703057289,-0.16274930652827024,0.21096008746773004
1639426092022924500,2.170924560546875,0.0586719691991806,-0.09772533795386552,0.2874704956963658
1639426092032914700,2.180914794921875,-0.06658814915120602,-0.056711775042116636,0.35060382821857927
1639426092042903600,2.190903564453125,-0.07669570166766643,-0.0237982242166996,0.20728782869577406
1639426092052893700,2.200893798828125,-0.0642535687237978,-0.04751373858600855,0.16824819620549678
1639426092062883600,2.210883544921875,-0.07203297055363654,-0.14603563374504447,0.21478578323572872
1639426092072873500,2.22087353515625,-0.050292263388633726,-0.17872209781631826,0.10158727407902479
1639426092082863600,2.230863525390625,-0.02493453477025032,-0.16974135737270116,0.022874095109105107
1639426092092852500,2.2408525390625,0.037301264390349385,-0.1470876270160079,-0.0010623685345053672
1639426092102842600,2.250842529296875,0.09099836778640746,-0.13601122946739197,-0.055635377982258795
1639426092112832800,2.260832763671875,0.08335632860064505,-0.11500599697008729,-0.0837359755679965
1639426092122822700,2.27082275390625,0.04225859453678131,-0.056474459154903886,-0.10963964763134718
1639426092132812800,2.280812744140625,-0.013434651112556456,0.018215163387358187,-0.11945727729052305
1639426092142801700,2.2908017578125,-0.08950432983636855,0.05845291962102055,-0.09593027123063802
1639426092152791800,2.300791748046875,-0.14395371290445327,0.07293444943800569,-0.04082417781949043
1639426092162781700,2.31078173828125,-0.14009353034496305,0.053057198057323694,-0.011739829893410205
1639426092172771600,2.320771484375,-0.05505085609257221,-0.0060886722639203065,-0.02934767503738403
1639426092182761700,2.33076171875,0.03417582584619522,-0.06501900013834237,-0.12557897504121066
1639426092192750600,2.34075048828125,0.08688216463923454,-0.1050958667218685,-0.2161681775048375
1639426092202740700,2.35074072265625,0.05226151763498783,-0.10172361380979418,-0.25944705500006676
1639426092212730600,2.360730712890625,0.014988894817233084,-0.06962620167285204,-0.2699617270126939
1639426092222720500,2.370720458984375,-0.05018821849226951,0.009822598095238208,-0.22194617638438938
1639426092232710700,2.380710693359375,-0.08906535389721393,0.07157660508826375,-0.13553981256335973
1639426092242700500,2.390700439453125,-0.0709369920104742,0.08374211304783821,-0.03154460055977106
1639426092252689700,2.400689697265625,0.013628127858042717,0.04498056684657931,0.05665244607031345
1639426092262679600,2.410679443359375,0.09418927278220653,-0.035396745943278074,0.08710311391353606
1639426092272669700,2.420669677734375,0.1407014331102371,-0.11870265953093767,0.08089578370600939
1639426092282659800,2.430659912109375,0.13595043919086455,-0.13991905056089163,0.0495636568531394
1639426092292649700,2.440649658203125,0.1185293487906456,-0.1276262629598379,0.013651216472685336
1639426092302638800,2.450638916015625,0.05261690694391727,-0.12088467974513768,-0.04674626134485006
1639426092312628700,2.460628662109375,-0.0028039515048265454,-0.104181089964509,-0.10694938563406467
1639426092322618600,2.47061865234375,-0.023478490743041036,-0.06426058298647404,-0.18760025466829539
1639426092332608800,2.48060888671875,-0.028249942928552627,-0.022469752091914413,-0.25383652164191006
1639426092342598700,2.4905986328125,-0.009212649503350257,0.011430325552821159,-0.291530292481184
1639426092352588500,2.500588623046875,0.01348024381995201,0.003869096518307924,-0.3021457945197821
1639426092362577700,2.51057763671875,0.0394184026747942,-0.04335764181986451,-0.31871991270184513
1639426092372567600,2.520567626953125,0.029057167658209797,-0.10615209777653217,-0.29869331597834825
1639426092382557700,2.5305576171875,0.0022223522245883942,-0.15117694215625524,-0.2432467385664582
1639426092392547600,2.540547607421875,-0.09390811775326728,-0.12241232770383358,-0.16016455073207617
1639426092402537500,2.550537353515625,-0.17153846992254257,-0.03205167329907417,-0.0286062090203166
1639426092412526600,2.560526611328125,-0.16514789210259914,0.048963352872431275,0.09807458978295326
1639426092422516500,2.5705166015625,-0.12168752056062221,0.02576820911541581,0.18420038309693335
1639426092432506600,2.580506591796875,-0.022578911554813383,-0.10586349009349942,0.22235008101016282
1639426092442496800,2.590496826171875,0.06445581329762935,-0.24779841052144763,0.20628829626441
1639426092452486700,2.600486572265625,0.14221066862940787,-0.3993814492605626,0.22212737817019224
1639426092462476000,2.61047607421875,0.17179624407589433,-0.5028709036991,0.2504588619023561
1639426092472466000,2.6204658203125,0.0598006809681654,-0.49452334659248587,0.28769904375523325
1639426092482456000,2.6304560546875,-0.027425767064094542,-0.3793953306779265,0.31378479438722134
1639426092492446000,2.640446044921875,-0.036599253600835796,-0.1629874991983175,0.3511065170437097
1639426092502435800,2.650435791015625,0.011803835040330887,0.08423223465234041,0.3914575243934989
1639426092512426000,2.660426025390625,0.03612695991396904,0.22381021669059992,0.42391631718873973
1639426092522414800,2.670414794921875,0.026682255220413207,0.16462050722762941,0.433216644975543
1639426092532405000,2.680405029296875,0.04317921651303768,-0.013353694830834865,0.48035833537876604
1639426092542395100,2.69039501953125,0.025360651227831838,-0.1864677435070276,0.49944268281608817
1639426092552385000,2.700385009765625,-0.10044891769886016,-0.22891864574551582,0.5142009837478398
1639426092562375200,2.710375244140625,-0.08693301804363728,-0.25430779241546986,0.536783986955881
1639426092572364000,2.720364013671875,0.017080314138531685,-0.3136452397860586,0.49863487356454134
1639426092582354200,2.730354248046875,0.21594459788203238,-0.374508143158257,0.49720133363008495
1639426092592344000,2.740343994140625,0.188376791998744,-0.39135961697697635,0.3689157299786806
1639426092602334000,2.750333984375,0.013902268624305724,-0.34348347481936214,0.2001198367625475
1639426092612324000,2.760323974609375,-0.0020838205367326736,-0.2865288309320807,0.2536950673446059
1639426092622313000,2.77031298828125,0.06765723968744278,-0.20542305773720143,0.23797727373093366
1639426092632303000,2.78030322265625,-0.11667466083467005,-0.017303163108974694,0.08107318609952927
1639426092642293000,2.79029296875,-0.29694354970157144,0.1729585658535361,-0.0819862092912197
1639426092652283000,2.800282958984375,-0.08954407732486724,0.24383067593425511,-0.05181552743315696
1639426092662273000,2.81027294921875,-0.0677174454420805,0.23579116186350582,-0.25907734490483997
1639426092672263000,2.820262939453125,0.09718728555440902,0.1528872532054782,-0.29713585740327836
1639426092682252000,2.830251953125,0.25450609146654607,0.06557736467346549,-0.24501725537031888
1639426092692242000,2.840241943359375,-0.03380173183679581,0.09407646005749702,-0.3876467339336872
1639426092702232000,2.850232177734375,-0.017388357174396515,0.20408435647934675,-0.32124007882922884
1639426092712222200,2.86022216796875,0.020786767441034314,0.3916337577432394,-0.3739122230917215
1639426092722212000,2.870212158203125,0.23444003951549527,0.3932138665415346,-0.2616784673139453
1639426092732202000,2.880201904296875,0.24956863506436347,0.1544204541221261,-0.41854923719763754
1639426092742191000,2.890191162109375,0.18523907849490642,0.15858195771574973,-0.4324097125068307
1639426092752181000,2.900180908203125,0.06126198569238186,0.07173311082422733,-0.42540567896366116
1639426092762171100,2.910171142578125,-0.0703664986461401,0.02636924374848604,-0.41099312272965904
1639426092772161000,2.9201611328125,-0.1686824959695339,0.04761091535016894,-0.3567541675418615
1639426092782151000,2.93015087890625,-0.1701122365117073,0.10857260292172431,-0.3329708486333489
1639426092792140000,2.94014013671875,-0.09173428084552288,0.14122487246245144,-0.31099633271247146
1639426092802130000,2.9501298828125,0.00972585972249508,0.09761778592616319,-0.297595291608572
1639426092812120000,2.9601201171875,0.04349778094291687,-0.021110738698393104,-0.31421091084480285
1639426092822110000,2.97010986328125,-0.017136428239941597,-0.19109584169909358,-0.31138007133305073
1639426092832099800,2.980099853515625,-0.14881810407042503,-0.3513046699643135,-0.3078101038917899
1639426092842089000,2.9900888671875,-0.23900340190827846,-0.4253067486338317,-0.26333354104459283
1639426092852078800,3.000078857421875,-0.2622591898113489,-0.3953934025377035,-0.2526312375053763
1639426092862069200,3.0100693359375,-0.31765199120938775,-0.30384909130632876,-0.30015958913862706
1639426092872059100,3.02005908203125,-0.3085486472994089,-0.17417188716605306,-0.2835015920653939
1639426092882049000,3.030049072265625,-0.1331552555143833,-0.05391118453815579,-0.20870734010487793
1639426092892039200,3.0400390625,0.0845785638719797,-0.044131110410392284,0.006255553263425827
1639426092902028000,3.050028076171875,-0.09145020320713519,-0.12081278355270623,0.16250994481444359
1639426092912018200,3.06001806640625,-0.45130818198323247,-0.30760128344669935,0.2323769695058465
1639426092922008000,3.070008056640625,-0.8718097222924232,-0.5943937337510288,0.27144261322021485
1639426092931998000,3.079998046875,-1.2079349433034658,-0.7449624808810651,0.3306044117629528
1639426092941988000,3.089988037109375,-1.2885054405778646,-0.6609599633313715,0.5744993851050734
1639426092951978000,3.09997802734375,-1.1724655705153941,-0.4282189828187227,1.0537664181157946
1639426092961967000,3.109967041015625,-0.9410907637894153,-0.1985638394922018,1.6347092802718282
1639426092971957000,3.11995703125,-0.6773316908091306,-0.10756269522681831,1.9902511494144797
1639426092981947000,3.12994677734375,-0.42866263493299483,-0.08769684202298521,1.8525149958506226
1639426092991937000,3.13993701171875,-0.1712099686205387,-0.14978694910258053,1.4035764656081795
1639426093001927000,3.149927001953125,0.19900866065025327,-0.36665859870165585,1.0526979121014475
1639426093011916000,3.159916015625,0.4542611865699291,-0.66011869020164,0.9301873847201466
1639426093021906000,3.169906005859375,0.5343997221678495,-0.8043548733092843,0.8445210256114601
1639426093031896000,3.17989599609375,0.6940501858979463,-1.0941904907017945,1.0363134712725877
1639426093041886200,3.18988623046875,0.9932318699151277,-1.1834374847762286,1.096358482390642
1639426093051876000,3.1998759765625,1.3083400218605994,-1.093747715370357,1.1408312458455563
1639426093061865200,3.209865234375,1.5430477724015712,-1.1776157928854227,1.253856444261968
1639426093071855000,3.219855224609375,1.6886866619139909,-1.3065787112765013,1.3101450254559517
1639426093081845000,3.229844970703125,1.4229513204246758,-1.3304089380666613,1.332102882502973
1639426093091835100,3.239835205078125,1.108231291013956,-1.069351817521453,1.3523688409402965
1639426093101825000,3.249824951171875,0.6995633963614701,-0.506343548245728,1.1013789409011603
1639426093111815000,3.25981494140625,0.473940869551897,0.09200096895769239,0.8737503349661827
1639426093121804000,3.269803955078125,0.0933452231734991,0.6509332940313964,0.6449428945101797
1639426093131794000,3.2797939453125,-0.3936263928651809,1.4060899097338317,0.6888068784169852
1639426093141784000,3.2897841796875,-0.7005828025370836,1.1206269544675946,1.2913381797857582
1639426093151774000,3.29977392578125,-0.7790776625812054,1.115611537458375,1.4931069527991114
1639426093161763800,3.309763916015625,-0.2407832710623741,1.2874788740091025,1.504227920141816
1639426093171753000,3.3197529296875,0.1419610777825117,1.512173033927381,1.4080221929706633
1639426093181742800,3.329742919921875,0.2794821272909641,1.5742574419185518,1.0737614506572484
1639426093191733200,3.339733154296875,0.30153613818883895,1.2976967550322414,0.583463320544362
1639426093201723100,3.34972314453125,-0.2044675105780363,0.8974289513912052,0.09610416649281978
1639426093211713000,3.359713134765625,-1.0109656795263289,0.49981538858599955,-0.2993127630509436
1639426093221703200,3.369703125,-1.4082412425488233,0.6718471219182014,0.18840265709236262
1639426093231692000,3.379692138671875,-1.3211048108875751,0.9900682182524353,1.280034403222054
1639426093241682200,3.38968212890625,-0.7623498151421546,1.4516206578090787,1.3143737490668892
1639426093251672000,3.399672119140625,-0.2521644967764616,1.6252556616194545,1.3653044564895331
1639426093261662000,3.409661865234375,-0.38442426475584507,1.6866213999472557,0.9589901392258703
1639426093271652000,3.419652099609375,-0.7225152328819036,1.8556249445647,0.42935339367613196
1639426093281641000,3.429640869140625,-0.7295832715719938,1.2964669209763406,-0.2157043593853712
1639426093291631000,3.439631103515625,-0.698140670081973,0.9940132295511662,-0.9145683022405952
1639426093301621000,3.44962109375,-0.8515046008884907,0.7608199752263725,-1.305781861810386
1639426093311611000,3.45961083984375,-0.9592150340229272,0.464130108024925,-1.3552920349106192
1639426093321601000,3.46960107421875,-0.7281389179825782,0.14020955794006584,-1.2916799789607525
1639426093331591200,3.479591064453125,-0.3450818499267101,0.1114605794481933,-1.4509236154556273
1639426093341580000,3.489580078125,-0.1116015953540802,0.5731150911398232,-1.6742314355820416
1639426093351570200,3.499570068359375,-0.07048515658974647,1.2719545571409165,-1.927763421319425
1639426093361560000,3.50956005859375,0.07781739917397498,1.7458280605450271,-2.0374232349559662
1639426093371550200,3.51955029296875,0.394782577162981,1.7642185804992914,-2.0338778174340724
1639426093381540000,3.5295400390625,0.3827712368518114,1.391421332912147,-2.174495225522667
1639426093391529000,3.539529052734375,0.40481063470244405,0.8975525047056376,-2.4890420903235673
1639426093401519000,3.54951904296875,0.8590501939624547,0.6267451206490398,-2.596847216004133
1639426093411509000,3.559509033203125,1.3253864337295294,0.6205895206287503,-2.002777453510463
1639426093421499100,3.5694990234375,1.2152870596319436,0.7201409049659967,-1.8316237451218067
1639426093431489000,3.579489013671875,0.10861819562911987,0.6250552678659558,-2.3419655692234636
1639426093441479000,3.58947900390625,-1.5944120489358902,0.48275750547498464,-3.051899260690808
1639426093451468000,3.599468017578125,-1.972866591632366,0.5152914093330502,-3.4734961950212715
1639426093461457200,3.60945703125,0.0683224255979061,0.5123337285712362,-3.0014675888314843
1639426093471447300,3.619447265625,2.6200813765972852,0.5258499204874039,-2.288800673007965
1639426093481437200,3.629437255859375,3.8889977350860834,0.4623077149033546,-1.7113585124492645
1639426093491427000,3.639427001953125,3.940133463561535,0.19120470890104768,-1.0990940448343753
1639426093501416200,3.649416259765625,4.443632436031103,-0.30239041693061586,-0.39921559117436406
1639426093511406000,3.659406005859375,4.991033094069361,-0.8141875544071197,0.17789076155871153
1639426093521396200,3.669396240234375,5.235615757414698,-1.593783395643532,0.5335065727204084
1639426093531386400,3.679386474609375,5.211055901175737,-2.591940154740214,0.4363403299540281
1639426093541376300,3.689376220703125,5.011763747408986,-3.1204952425330874,0.2840881597816944
1639426093551366400,3.699366455078125,3.5637931365400553,-2.9754297689944504,0.0653343496978283
1639426093561355300,3.709355224609375,1.6335265002280472,-2.501265904341638,-0.19730828647315501
1639426093571345400,3.719345458984375,0.2795435020893812,-2.2152906156390904,-0.07430676070451736
1639426093581335300,3.729335205078125,-0.22390110984444617,-2.0398305883586407,-0.10758125379681586
1639426093591325200,3.7393251953125,-0.5167886621534824,-1.2793603033527732,-0.6886059490174055
1639426093601315300,3.7493154296875,-0.709946258687973,-0.09430500811636447,-1.1476292354226112
1639426093611304200,3.75930419921875,-0.6043880351513624,0.8256132037848234,-1.260438453000784
1639426093621294300,3.76929443359375,-0.5266653285235167,1.3126175530493258,-0.766744835230708
1639426093631284200,3.7792841796875,-0.45499885319471356,1.2525503300994634,0.033710546422004696
1639426093641274000,3.789274169921875,-0.29970249302089214,0.8521309160932898,0.5250193148821592
1639426093651264300,3.79926416015625,-0.17272446483671663,0.22007950572967527,0.19374504103362558
1639426093661254100,3.809254150390625,-0.06707797849476337,-0.43547728338390584,-0.6631301469773053
1639426093671243300,3.8192431640625,-0.26326515198349953,-0.7470499546796083,-1.4603729963243006
1639426093681233200,3.829233154296875,-0.7550847925752401,-0.8354439851865172,-2.232980586108565
1639426093691223300,3.839223388671875,-1.6183189942240714,-0.6867804871559142,-2.872937362769246
1639426093701213400,3.84921337890625,-2.3323025456041098,-0.3999152638763189,-3.0206454597711563
1639426093711203300,3.859203369140625,-2.8983471138358112,-0.06903086612820625,-2.9415666623592376
1639426093721192400,3.8691923828125,-3.167287973368168,0.3435480644881725,-2.713372823756933
1639426093731182300,3.879182373046875,-2.6369641223371025,0.47270957419127224,-1.9866075322151182
1639426093741172200,3.889172119140625,-2.553135500049591,0.27888416139781474,-1.2447212439090012
1639426093751162400,3.899162353515625,-3.167776049146056,0.2650263164371252,-0.4122282174825668
1639426093761152300,3.90915234375,-4.265477178317308,0.6069486794196068,0.11255378151237964
1639426093771142100,3.91914208984375,-4.980824419265986,1.1792382795207201,0.65305065151155
1639426093781131300,3.92913134765625,-4.9130070205807685,1.6095812687560915,1.6056255168676374
1639426093791121200,3.93912109375,-4.513180604031682,1.6993088859543204,3.4558313589930534
1639426093801111300,3.949111328125,-3.5042484761595722,1.4525605690076946,4.684871634167433
1639426093811101200,3.95910107421875,-1.9377163677960634,1.0321431998506188,4.6880794902980325
1639426093821091000,3.969091064453125,-0.9359200831532478,0.3813251296967268,3.304372385025024
1639426093831080200,3.979080078125,-0.44024961235225196,-0.3127496061205864,1.1561311063081026
1639426093841070000,3.989070068359375,-0.2139437794536352,-0.6216992354363202,-0.7511679113924503
1639426093851060200,3.999060302734375,-0.1759673922806978,-0.7391627085611224,-2.0651538301855323
1639426093861050400,4.00905029296875,-0.22401099995970725,-0.8330038985580206,-2.9463094729721546
1639426093871040300,4.019040283203125,-0.20867899079322813,-0.7961085846200585,-3.225110047739744
1639426093881030400,4.029030517578125,-0.3449684526801109,-0.9396429030686616,-2.9274188945412636
1639426093891019300,4.039019287109375,-0.50011985142529,-1.1972978139549493,-2.412918635585904
1639426093901009400,4.049009521484375,-0.16756956629157066,-1.2264870835602282,-1.909678606313467
1639426093910999300,4.058999267578125,0.6733247932553291,-1.0436384073331952,-1.2819395061910153
1639426093920989200,4.0689892578125,1.5526310087829827,-0.7863383012339472,-1.065388174587488
1639426093930979300,4.078979248046875,1.9812229165673254,-0.5128419703543186,-1.456595815873146
1639426093940968200,4.08896826171875,1.9654747278153895,-0.19868103613108395,-2.4397592962384222
1639426093950958300,4.098958251953125,2.1381611987292763,0.3105968120008707,-3.362794178855419
1639426093960948200,4.1089482421875,2.6279969720274208,1.006659506765008,-3.8649966817736625
1639426093970938000,4.118938232421875,3.2035704161047933,1.820486703427136,-3.917260537496209
1639426093980928300,4.12892822265625,3.075031129953265,2.4244804785639045,-4.095439176085591
1639426093990918100,4.138918212890625,2.2893740889817473,2.278516594880819,-3.964893226286769
1639426094000907300,4.1489072265625,1.2666358463361858,1.331290835467726,-3.5152672983020543
1639426094010897200,4.158897216796875,0.05059095407426357,0.17975772447437047,-2.8242303227454424
1639426094020887300,4.16888720703125,-0.719140788012743,-0.5544426855042577,-2.052563813203573
1639426094030877400,4.17887744140625,-1.0418833803594112,-0.7779343377649783,-1.6778122166782616
1639426094040867300,4.188867431640625,-0.9636275897681712,-0.7409054605752229,-1.5233856250762938
1639426094050857200,4.198857177734375,-0.8919564382642508,-0.46256695036143064,-1.2342436890363693
1639426094060846300,4.208846435546875,-0.8786053737819194,-0.10799480303376913,-0.885745308664441
1639426094070836200,4.218836181640625,-0.9265501972615718,0.17548311589509247,-0.4999193604171276
1639426094080826400,4.228826416015625,-0.7015098542541265,0.14530483525246382,-0.24784955618679522
1639426094090816300,4.238816162109375,-0.7692445430919528,-0.019783289486914872,-0.09140928667485713
1639426094100806100,4.24880615234375,-1.1912079726472495,-0.2330561839416623,0.1333294430375099
1639426094110795300,4.258795166015625,-1.718155040721595,-0.2692268368668854,0.49262686532139777
1639426094120785200,4.26878515625,-1.6476128932476042,0.11581921304911375,1.0465227305978535
1639426094130775300,4.278775390625,-0.9217571177661419,0.5130304786637425,1.3920447255074977
1639426094140765200,4.28876513671875,-0.03237783651351928,0.7207771570429206,1.3326432729899882
1639426094150755000,4.298755126953125,0.5667161838829518,0.7392816587656736,1.3480255510389805
1639426094160745500,4.308745361328125,1.2240281461007891,0.5521932991422712,1.951834909519553
1639426094170734000,4.318734130859375,0.4669292372241616,0.25498832202553745,2.1832927183538673
1639426094180724500,4.328724365234375,-0.3231803992420435,-0.05156389075964689,2.1278011327564714
1639426094190714400,4.33871435546875,0.004008724184706807,0.14418766779080033,1.5901462081849573
1639426094200704300,4.348704345703125,0.1526058424482122,0.4604902902178466,1.184903611806035
1639426094210694400,4.3586943359375,0.1569102251112461,0.5213758438132703,1.1211287665098906
1639426094220683300,4.368683349609375,0.5541068776786328,0.5098528715409338,0.5896838024944067
1639426094230673400,4.37867333984375,1.1935409456394612,0.4803890227779746,-0.2750181336194277
1639426094240663300,4.388663330078125,0.9069837653957307,0.09651683894693851,-0.45405718843042847
1639426094250653200,4.398653076171875,0.9046035922609269,-0.13184373452439904,0.08461655779480934
1639426094260643300,4.408643310546875,2.01492864068374,-0.6942645593009888,0.8034902193039655
1639426094270633200,4.41863330078125,2.7622739250481128,-1.1292394461207091,1.6252490857481956
1639426094280622300,4.428622314453125,3.363450889198482,-0.8127785643920302,2.5975866361945865
1639426094290612200,4.4386123046875,2.9859257363066076,-0.22956761117354035,3.1316777308046815
1639426094300602000,4.44860205078125,2.199642087869346,0.23555223854109644,3.099538963744044
1639426094310592300,4.45859228515625,1.4942580225303768,0.3042154404006898,2.538535896810889
1639426094320582100,4.46858203125,0.4819391748294234,0.32455205292142925,1.677888204523921
1639426094330571300,4.4785712890625,0.27621698801517486,0.41685237015187737,1.0415922884583473
1639426094340561200,4.48856103515625,0.6781047210082412,0.24105777715481816,0.8563076172560453
1639426094350551300,4.49855126953125,0.9100351157903671,0.14939327360987661,0.8887328000426292
1639426094360541400,4.50854150390625,0.8534750241786241,0.15742504276558755,0.7401040810644626
1639426094370531300,4.51853125,0.7546545844644308,0.1743276622496545,0.5107844533026218
1639426094380521200,4.528521240234375,0.7809796968102455,0.2351207152560353,0.3700216453939676
1639426094390510300,4.53851025390625,0.792168614822626,0.25735095950365067,0.4670867658734321
1639426094400500200,4.548500244140625,0.599623597228527,0.10308189655095339,0.4918190560698509
1639426094410490400,4.558490478515625,0.3962947352916002,0.14571042037867007,0.24196166719198225
1639426094420480300,4.568480224609375,0.23101474124193191,0.03879888253696263,0.013753800064325332
1639426094430470100,4.57847021484375,0.30676585553586483,-0.15994469743631778,-0.1156838962316513
1639426094440460300,4.588460205078125,-0.16177578532099723,-0.02123451120853424,-0.045533086162805554
1639426094450449200,4.59844921875,-0.41151626982092854,0.09858670402355492,0.0785100576132536
1639426094460439600,4.608439453125,-0.1864852791637182,0.20741401235871015,0.17717326093912122
1639426094470429400,4.618429443359375,-0.004895955348014831,0.23776596906781194,0.17381226007342337
1639426094480419300,4.62841943359375,0.09010989451408385,0.23163082731366155,0.02780921342372894
1639426094490409500,4.638409423828125,0.06668517978489398,0.22903050862215457,-0.1933399673640728
1639426094500398300,4.6483984375,0.14639876796901224,0.010394187438115477,-0.3131125942140817
1639426094510388500,4.658388427734375,0.11491115829348564,0.012149287477135657,-0.29206805261969565
1639426094520378400,4.66837841796875,0.010327332746982575,0.11968816343694924,-0.209007492095232
1639426094530368300,4.6783681640625,-0.2819453025341034,0.14061317030489445,-0.11045710149407387
1639426094540358400,4.6883583984375,-0.6253209330648184,0.04975939862094819,-0.01418868435025215
1639426094550348300,4.698348388671875,-0.8702075477927923,-0.11080248086564243,0.07252572250664234
1639426094560337400,4.70833740234375,-1.1664140153914688,-0.09575981003455818,0.14637714065909385
1639426094570327300,4.718327392578125,-1.3529969097107648,-0.09145056853331625,0.16381459767222403
1639426094580317400,4.7283173828125,-1.4082821590811014,-0.0732978028576821,0.32294542144238947
1639426094590307600,4.7383076171875,-1.1545271782428026,-0.13638466588966547,0.34576398697197436
1639426094600297500,4.74829736328125,-0.6541741025835275,-0.06704911772646009,0.2565343824237585
1639426094610287400,4.758287353515625,-0.06671265231370925,-0.06324789881259203,-0.003205518043041229
1639426094620276500,4.7682763671875,0.4441092103898525,-0.03394968894012272,-0.2708522461116314
1639426094630266400,4.778266357421875,0.5557803638488054,0.13442585997208953,-0.31183015318810936
1639426094640256500,4.788256591796875,0.7104939556986093,-0.02648717103973031,-0.7272317400097846
1639426094650246400,4.798246337890625,0.9001140257567167,-0.04042666640188545,-0.601902648076415
1639426094660236300,4.808236328125,0.7458440860211849,-0.044593832551315424,-0.0402589451521635
1639426094670225400,4.818225341796875,0.5682517228871583,-0.04247738838661462,0.19610124877095222
1639426094680215300,4.82821533203125,0.17449147450923919,-0.16532193349525331,0.2180781027793884
1639426094690205400,4.838205322265625,-0.3014642419964075,-0.34107155483942475,0.18784663064479826
1639426094700195300,4.8481953125,-0.654051937508583,-0.44065439376085996,0.3550204756170511
1639426094710185200,4.858185302734375,-0.627973493400216,-0.461157923813723,0.4730220011413097
1639426094720175600,4.868175537109375,-0.290620191898942,-0.4332978569855913,0.4747790739417076
1639426094730164200,4.878164306640625,-0.27268706032335754,-0.5396687120793388,0.15938567531406878
1639426094740154600,4.888154541015625,-0.3447778985440731,-0.45341103601399807,0.2315764667779207
1639426094750144500,4.89814453125,-0.11581716722249984,-0.3866465439151972,0.37164340137690305
1639426094760134400,4.908134521484375,-0.04045475998520851,-0.25498821242768316,0.28610914421528577
1639426094770124500,4.91812451171875,-0.2029600286245346,-0.15422087642941623,0.15826017841547727
1639426094780114400,4.928114501953125,-0.29436814625561236,-0.11671614362252876,0.14425444941669702
1639426094790103600,4.938103515625,-0.36015199328660963,-0.07834668374508619,0.19208996730297803
1639426094800093400,4.948093505859375,-0.38886020137667654,-0.0688924623045139,0.23419892423599958
1639426094810083300,4.958083251953125,-0.17966390871107576,-0.14011484712762756,0.09631517889499663
1639426094820073500,4.968073486328125,0.3712684305846691,-0.18741978353485464,-0.11074059461057185
1639426094830063400,4.9780634765625,0.8175883027613162,-0.09463775633522309,0.15873013401478528
1639426094840052500,4.988052490234375,0.8321610179930925,-0.005630258688644972,0.09637743047624826
1639426094850042400,4.99804248046875,0.3913660467177629,-0.0017341300308165953,0.03501023084372282
1639426094860032300,5.0080322265625,-0.21908640303909777,-0.013531245638115797,0.22990385739058256
1639426094870022400,5.0180224609375,-0.528268672066927,-0.08817176605835557,0.3118053110077977
1639426094880012300,5.02801220703125,-0.5337725301802158,-0.21098858290985226,0.24338147086203096
1639426094890002400,5.03800244140625,-0.43994975262284275,-0.27047793290652333,0.24775194103121756
1639426094899991300,5.0479912109375,-0.15527940903902052,-0.3549201205151155,0.2502878892496228
1639426094909981400,5.0579814453125,0.23085341320037842,-0.37206513392031193,0.17852555233091114
1639426094919971600,5.0679716796875,0.4981576114416122,-0.2979771853319369,0.15302403132766484
1639426094929961500,5.07796142578125,0.7947744134068488,-0.2329388411723077,0.1203629939585924
1639426094939951400,5.087951416015625,0.8781956239372491,-0.10533199529899284,0.10961772806048392
1639426094949941500,5.09794140625,0.6582189940601587,-0.05003699171962216,0.0010379647456109523
1639426094959930400,5.107930419921875,0.5771200889974832,-0.08453297116458415,0.025939327898621557
1639426094969920500,5.11792041015625,0.8628466636359691,-0.10119502335842698,0.023327391834557055
1639426094979910400,5.127910400390625,0.7453127556234598,-0.20073862624801694,0.0763080175243318
1639426094989900300,5.137900390625,0.45194881797432895,-0.3221455763015896,0.17686127238050103
1639426094999890400,5.147890380859375,0.16859481768608092,-0.349852717590332,0.17499869337901472
1639426095009879300,5.15787939453125,0.082356796169281,-0.16038100649435072,0.058225394475460046
1639426095019869400,5.167869384765625,0.08310556870996952,-0.039937129319272936,-0.0065488371215760705
1639426095029859300,5.177859375,0.08310966036319732,0.13038297778945415,0.027551000878959894
1639426095039849200,5.18784912109375,0.15439795002937315,0.19476638343799857,-0.004585281963646412
1639426095049839600,5.197839599609375,0.20564239957630634,0.33019046066720037,-0.12546017096713186
1639426095059829500,5.20782958984375,0.26636077991127965,0.4986530302757397,-0.25610811983570453
1639426095069818600,5.217818603515625,0.22792846566438674,0.4365948527043685,-0.2579626616612077
1639426095079808500,5.22780859375,0.19949965903759,0.4494048691125586,-0.2718241598837077
1639426095089798400,5.23779833984375,0.14599720143079756,0.4388445678599179,-0.2623030289530754
1639426095099788500,5.24778857421875,0.16383856306970118,0.18947246001465246,-0.08438494099602102
1639426095109778400,5.2577783203125,0.07473755333721638,0.09678924441384151,0.028988778597116467
1639426095119768300,5.267768310546875,0.036785716083645816,0.11322103151576593,0.024425854595750567
1639426095129757400,5.27775732421875,0.12005027474761008,0.13206797173433005,-0.005929682309925556
1639426095139747300,5.287747314453125,0.1401098969578743,0.15136329504121093,-0.04247399085313081
1639426095149737500,5.297737548828125,0.14268062422871589,0.16470522636901586,-0.0506667957894504
1639426095159727400,5.307727294921875,0.06368482892513275,0.17749967988189308,-0.04244973319470882
1639426095169717200,5.31771728515625,0.018141221368312834,0.15226853678524493,-0.0322530410900712
1639426095179707400,5.327707275390625,0.04838730655014515,0.07446783301774412,-0.037089959727227687
1639426095189696300,5.3376962890625,0.08491934013366699,-0.1108378261736594,-0.008659107273817062
1639426095199686400,5.347686279296875,0.12781973970532418,-0.26603445230005307,0.06424553154781461
1639426095209676500,5.357676513671875,0.10957213535308838,-0.3428317329123616,0.06674173227772116
1639426095219666400,5.36766650390625,0.08760814082622527,-0.3572494767781347,0.03155643712803721
1639426095229656600,5.377656494140625,0.06126257021427154,-0.32345819327011704,-0.012306231604516505
1639426095239645400,5.3876455078125,0.036164953836798665,-0.23098675725646314,-0.033660569800436496
1639426095249635600,5.397635498046875,0.02255728424489498,-0.15829448254387823,-0.02985898556038737
1639426095259625500,5.40762548828125,0.04136544508934021,-0.10861686218855902,-0.0198550395488739
1639426095269615400,5.417615478515625,0.04111994589567184,-0.09992573407497256,-0.018024024729430675
1639426095279605500,5.42760546875,0.03601940788626671,-0.09442711839238181,-0.022156594489514826
1639426095289595400,5.437595458984375,0.04404489343166351,-0.0831564769132994,-0.009725421331077814
1639426095299584500,5.44758447265625,0.032361469900608064,-0.06682566596781835,-0.014747487276792525
1639426095309574400,5.457574462890625,0.0026548984229564664,-0.0608531856957823,-0.02093435921818018
1639426095319564300,5.467564208984375,0.02478840429782867,-0.0641672056145966,-0.02064502088278532
1639426095329554400,5.477554443359375,-0.014953238981962203,-0.059207884440477934,-0.003846738556027412
1639426095339544300,5.48754443359375,-0.017474281892180442,-0.05794939054567366,-0.00620791472941637
1639426095349534200,5.4975341796875,0.06809796919226646,-0.0561157636440359,-0.015397329487651585
1639426095359523300,5.5075234375,0.036005379360914226,-0.06433914638170972,0.003975187241286039
1639426095369513200,5.51751318359375,0.024591420421004293,-0.06668461352931335,-0.004715191953629255
1639426095379503600,5.527503662109375,-0.022513445103168488,-0.07239868032718078,0.023703531670570373
1639426095389493500,5.537493408203125,0.12185761643052101,-0.050234742781426756,-0.008981909487396479
1639426095399483400,5.5474833984375,0.23228782991766928,-0.02958427853854373,-0.036548984718322755
1639426095409473500,5.5574736328125,0.2502250531464815,0.019723741319403052,-0.06426277494356036
1639426095419462400,5.56746240234375,0.5137877267718315,0.14031000437354668,-0.11095321444794536
1639426095429452500,5.57745263671875,0.5910849014639854,0.27381387239620086,-0.1716926375709474
1639426095439442400,5.5874423828125,0.7277940500676632,0.22776602337798102,-0.2427409810014069
1639426095449432300,5.597432373046875,0.8230249408572912,0.08941633189250714,-0.1926291887462139
1639426095459422500,5.60742236328125,0.4971124863028526,-0.2321918769962154,-0.09121142601519823
1639426095469412600,5.61741259765625,0.0687760145843029,-0.45441462356597184,-0.10594181602671741
1639426095479401500,5.6274013671875,-0.22639818735718725,-0.4066458873055875,-0.06684416973888874
1639426095489391600,5.6373916015625,-0.1651753646314144,-0.35950068977102634,-0.10366846426725387
1639426095499381500,5.647381591796875,0.2854173625588417,-0.4780797229222953,-0.37809579238668084
1639426095509371400,5.657371337890625,0.8547428521573543,-0.4578131799630821,-0.3985213252998888
1639426095519361500,5.667361572265625,0.2893184616506099,-0.21742270761057733,-0.09918532750383019
1639426095529350400,5.677350341796875,0.08838204780817031,-0.22894940620996057,-0.20233678215965628
1639426095539340500,5.687340576171875,1.1011445476233959,-0.3871681566365063,-0.505593898922205
1639426095549330400,5.697330322265625,1.8457599686324595,-0.21083331928290425,-0.4098280244730413
1639426095559320600,5.707320556640625,1.4227864852517842,0.04772601136351004,-0.2423765316031873
1639426095569310500,5.717310546875,0.863147107887268,0.08356410786611959,-0.30217765096277
1639426095579300400,5.72730029296875,0.6388438469827175,0.07939035671227611,-0.3964768138602376
1639426095589289500,5.73728955078125,0.43619946017861366,0.2659174565905705,-0.4018438938513398
1639426095599279400,5.747279296875,-0.013776011896133422,0.5071066415727138,-0.39346009638756513
1639426095609269500,5.75726953125,-0.7387000594854355,0.5328884042894467,-0.3151400083884597
1639426095619259600,5.767259765625,-0.5929261454164981,0.08361437674863263,-0.44479456230551
1639426095629249500,5.77724951171875,-0.4967208566367626,-0.05459085563169792,-0.28499446097165343
1639426095639239400,5.787239501953125,-0.28787586162686346,-0.13886305696824564,-0.35768677221685646
1639426095649228500,5.797228515625,0.018258125746250152,-0.22380159499272703,-0.40886312496364113
1639426095659218400,5.807218505859375,0.2986392477035522,-0.24745566149838266,-0.4058294563561678
1639426095669208600,5.81720849609375,0.4193032704353332,-0.1963536160968244,-0.37780776922553777
1639426095679198500,5.827198486328125,0.5062456408292055,-0.16151749971099197,-0.32671792571842667
1639426095689188600,5.837188720703125,0.45775428938269613,-0.049868996475264424,-0.28721944354474543
1639426095699178500,5.847178466796875,0.5934370175480842,0.07107406239360571,-0.24079174662977457
1639426095709167400,5.85716748046875,0.6957996599137782,0.09370375428758561,-0.27677608320266006
1639426095719157500,5.867157470703125,0.7233411623120307,0.11808693878538906,-0.3310170842170715
1639426095729147400,5.8771474609375,0.7052689145267009,0.1770751343268901,-0.35674247710406776
1639426095739137500,5.887137451171875,0.58936056188941,0.1993354814518243,-0.3255582342892885
1639426095749127700,5.897127685546875,0.465166026943922,0.29182891010157763,-0.32392624917328355
1639426095759117600,5.90711767578125,0.2477192078053951,0.24962189962156114,-0.320562910220027
1639426095769106700,5.917106689453125,0.1798544628471136,0.29327530951760705,-0.36274785499870776
1639426095779096600,5.9270966796875,0.29347441228628157,0.24291166139319537,-0.3590729658782482
1639426095789086500,5.93708642578125,0.4887251817077398,0.21343356490917503,-0.4179185380786657
1639426095799076600,5.94707666015625,0.6244809751093388,0.20704737100340426,-0.4072767325550318
1639426095809066500,5.95706640625,0.8010100929260253,0.17563567610830066,-0.4293815968573093
1639426095819055600,5.9670556640625,0.888030204731226,0.25211378950253127,-0.3960644336670637
1639426095829045500,5.97704541015625,1.0102578235179185,0.14228409919179974,-0.538766685205698
1639426095839035400,5.987035400390625,0.8986088818907737,-0.09354491046406328,-0.9079068715900183
1639426095849025500,5.997025634765625,0.8219891680687665,-0.007088935347646474,-0.7003963400542735
1639426095859015400,6.007015380859375,1.139895426300168,0.07156754499897361,-0.7502589798539876
1639426095869005600,6.017005615234375,1.3941566030949353,-0.010661021680757403,-0.7245581368863582
1639426095878994400,6.026994384765625,1.4481220020383596,0.05204093368686735,-0.49904783827960486
1639426095888984300,6.036984375,1.6190736119836568,0.12083134212270379,-0.41759412842988963
1639426095898974500,6.046974365234375,1.55578801150918,0.17828319494239986,-0.45148236950635906
1639426095908964400,6.05696435546875,0.8507926532268524,0.17203326770216226,-0.08262100006341934
1639426095918954500,6.06695458984375,1.258185121116042,-0.016139672287553548,-0.09586626608371734
1639426095928944600,6.076944580078125,1.8776836316376924,-0.32233415767624973,-0.2519505617648363
1639426095938933500,6.08693359375,1.6058534804046154,-0.34717443829178807,-0.15646832656264303
1639426095948923600,6.096923583984375,1.5379744146600365,-0.2745779886364937,-0.10398585965335369
1639426095958913500,6.10691357421875,1.3488012115865946,-0.13002265657708048,-0.09975625925958156
1639426095968903400,6.1169033203125,0.685135934819281,-0.026304215688258407,-0.2248188092112541
1639426095978893600,6.1268935546875,-0.1753130200251937,0.4587378935925662,0.057278469014167784
1639426095988883500,6.136883544921875,0.18028028704375026,0.5995430793382227,0.46806934716999526
1639426095998872600,6.14687255859375,1.4719029828593133,0.26028569778129457,0.37055589840114117
1639426096008862500,6.156862548828125,1.6715914424672722,0.13096432134136557,0.6160404790222644
1639426096018852400,6.166852294921875,1.6283701403781772,0.4328061644785106,1.4782342317074537
1639426096028842500,6.176842529296875,1.5773602302394807,0.730948860836774,2.214670437914133
1639426096038832400,6.186832275390625,1.6308241094015539,1.1482288087509571,1.9217630118608473
1639426096048822500,6.196822509765625,2.3039525033019483,1.341725135720521,1.3462532806694507
1639426096058811400,6.206811279296875,2.5236685825467107,1.088477812143415,0.7100742689818144
1639426096068801300,6.21680126953125,2.6475007139205933,0.23061069048568605,0.09515724103152752
1639426096078791700,6.226791748046875,2.7661516432642936,-0.5353609684154391,-0.23462124130129813
1639426096088781600,6.236781494140625,2.360017651003599,-1.0900460843734443,-0.5949222876697778
1639426096098771500,6.246771484375,1.388151809722185,-1.1252997685842214,-0.8923667726308107
1639426096108761600,6.25676171875,1.5306658452123403,-0.5709313173599541,-0.8341378710240125
1639426096118750500,6.26675048828125,1.0725241639472542,0.431809554656595,0.21696458857953546
1639426096128740600,6.27674072265625,0.663439505187422,1.4282790913186967,1.4875935962051152
1639426096138730500,6.28673046875,0.6803695972003042,2.0614109903953968,2.5206162092387676
1639426096148720400,6.296720458984375,0.5039338567554951,2.2182971039786934,2.7856992242991923
1639426096158710500,6.30671044921875,-0.11769114440083503,1.9327096455499528,2.1579893502712246
1639426096168700400,6.316700439453125,-0.35757863566726444,1.5080555156059563,1.0334551592320202
1639426096178689500,6.326689453125,-0.08986001140624285,1.0561951065674424,-0.17029811447262763
1639426096188679400,6.336679443359375,-0.1044341879427433,0.7017515540555119,-0.8965899432837963
1639426096198669300,6.34666943359375,-0.20966829409152268,0.6944846317924559,-1.048707673421502
1639426096208659500,6.356659423828125,0.0001391162097454071,0.8200526470482349,-1.3822551528990268
1639426096218649600,6.366649658203125,-0.05969400572329759,0.9190493201121688,-1.7362690818220377
1639426096228639500,6.376639404296875,-0.3246820359766483,1.0515350058019162,-2.5772458589553833
1639426096238628600,6.386628662109375,-0.07552753467112779,0.9375319022640586,-3.7002006718486546
1639426096248618500,6.396618408203125,0.04599018228054046,0.7288724929541349,-4.030587641468644
1639426096258608600,6.406608642578125,-0.3022258740186691,0.6219520411536097,-3.249304577797651
1639426096268598500,6.4165986328125,-1.134917930148542,0.7178937105610966,-2.265845913878083
1639426096278588400,6.42658837890625,-2.1166165986582635,0.8070908741444349,-1.193258767697215
1639426096288578600,6.43657861328125,-2.52464005792737,0.6277618964761496,-0.5440472559571266
1639426096298567400,6.4465673828125,-2.0130793595552445,0.2849368855655193,0.1340051503419876
1639426096308557600,6.4565576171875,-1.2568550415560602,-0.008742109382152558,0.505526678904891
1639426096318547500,6.46654736328125,-0.985219243851304,-0.1544265916019678,0.5389841273486614
1639426096328537300,6.476537353515625,-1.4349951017007232,-0.29105653748959304,0.41419104198813433
1639426096338527500,6.486527587890625,-1.9560943205296992,0.19813158555477856,0.9357669384181498
1639426096348517400,6.496517333984375,-2.4743922182023526,0.49691784051358695,1.347774791148305
1639426096358506500,6.506506591796875,-3.0086235980659723,0.4746101471155882,1.6345628575384616
1639426096368496400,6.516496337890625,-2.7431960073515773,1.089081477124989,1.5947008027493952
1639426096378486300,6.526486328125,-2.3427517511650917,1.0656140922978519,1.9822966832786797
1639426096388476700,6.5364765625,-1.0351914815053342,0.759214147464931,2.0871119794934985
1639426096398466600,6.546466552734375,-0.11723813993632792,0.4892740477621555,2.1175825210809704
1639426096408456400,6.55645654296875,-0.1579945132166147,0.36616029379069803,1.9802415043145416
1639426096418445600,6.566445556640625,-0.4011562038481235,0.20812340273708105,1.908874304193258
1639426096428435500,6.576435546875,-0.8808733187139034,0.022808628657460212,2.119802535218
1639426096438425600,6.586425537109375,-0.7623878090649843,-0.24462562570422886,2.342467965787649
1639426096448415500,6.59641552734375,-0.2319476381778717,-0.5930027177840471,2.425726094710827
1639426096458405400,6.6064052734375,0.30088088915050026,-0.7564622184082865,2.4462118333786727
1639426096468396000,6.61639599609375,1.127239358344674,-1.0340046098083258,2.0034353328973054
1639426096478385000,6.626385009765625,1.9370850841552019,-1.2822078017383813,1.4049357712626456
1639426096488375000,6.636375,1.8603391136050222,-1.2815455384373664,0.7722527849972247
1639426096498365000,6.646364990234375,1.5447148288309573,-1.137685349035263,0.29007775558531285
1639426096508354800,6.656354736328125,1.8275497736811637,-1.018598950883746,-0.3114244949966669
1639426096518345200,6.66634521484375,2.2955086462140084,-0.7042477547854185,-0.7080418863713741
1639426096528335000,6.676335205078125,2.5687743832081553,-0.173977095246315,-0.9562304652541875
1639426096538324200,6.68632421875,2.380688098588586,0.5357850390464067,-1.154595567303896
1639426096548314000,6.696314208984375,1.9332424372524022,1.34942489644289,-1.3383341781079767
1639426096558304000,6.706303955078125,1.740391714709997,1.9507967986434698,-1.610048301745951
1639426096568294100,6.716294189453125,1.3003197970122098,2.3821260224372147,-2.1058035282209513
1639426096578284000,6.726283935546875,1.2398872478812932,2.49853004963696,-2.8672803599208594
1639426096588274000,6.73627392578125,1.5227093332499264,2.412899930885434,-3.7315684545367955
1639426096598263000,6.746262939453125,1.8328689228773116,2.321210658225417,-4.577986545941234
1639426096608253000,6.7562529296875,1.7397043169677258,2.057834447082877,-5.2320484203219415
1639426096618243000,6.7662431640625,0.8877157319545745,1.7602362328648566,-5.366777793285251
1639426096628233000,6.77623291015625,0.14336626840531824,1.2009463995903729,-5.332907087865472
1639426096638222800,6.786222900390625,0.48613867234587665,0.20091478653252123,-4.97391537052989
1639426096648213000,6.796212890625,1.3374883749336004,-0.45043841341137886,-4.417485018339753
1639426096658201900,6.806201904296875,1.7057377499580382,-0.9009083910048007,-4.058397439414263
1639426096668192000,6.81619189453125,1.2252888136863709,-0.8155822236359119,-3.4081600917577743
1639426096678182100,6.82618212890625,0.7150351062595843,-0.4488613733530044,-2.8857918759062886
1639426096688172000,6.836172119140625,0.4143862722992897,0.030884383085370063,-2.4880247299745677
1639426096698162200,6.846162109375,0.14834639490544796,0.4754939442127943,-1.9650892356291412
1639426096708152000,6.856152099609375,-0.19326631760597227,0.7646072386801243,-1.30601683961004
1639426096718141200,6.86614111328125,-0.4645733217477798,0.8809025448083877,-0.9030021484136581
1639426096728131000,6.876131103515625,-0.8113029388815164,0.8585188635647296,-0.4866889997050166
1639426096738121000,6.886120849609375,-0.4688122744917869,0.6454881073027848,-0.5756456325307489
1639426096748111000,6.896111083984375,0.08878712147772312,0.2600140412330627,-0.6688464787974954
1639426096758101000,6.90610107421875,0.2952501897871494,-0.006187748724222183,-0.8988818536132573
1639426096768090000,6.916090087890625,0.1659293978691101,-0.1416127027362585,-1.4662407193139195
1639426096778080000,6.926080078125,-0.2350976266413927,-0.14090543124973773,-2.0931132657349107
1639426096788070000,6.93606982421875,-0.7799784108132124,-0.04816927988529205,-2.4981056867450473
1639426096798060000,6.94606005859375,-1.1985580431491136,0.07025953114032744,-2.486158643841743
1639426096808050000,6.9560498046875,-1.1423381432771682,0.10515899508595467,-2.1013287208944558
1639426096818040000,6.9660400390625,-0.9738783501476049,0.050994858700037,-1.5744462424889205
1639426096828030200,6.9760302734375,-0.7184715104490518,0.1531026495218277,-1.4131518109440804
1639426096838019000,6.98601904296875,-0.4113572798669338,0.38291678280234337,-1.7460551472991703
1639426096848009200,6.99600927734375,-0.45296588606238364,0.448692446526885,-2.1554422961369157
1639426096857999000,7.0059990234375,-0.43346857390999793,0.209555773627758,-2.3063231779560445
1639426096867989000,7.015989013671875,-0.5068348388940096,-0.14962708236575126,-2.1735820562005044
1639426096877979100,7.025979248046875,-0.9390274015188217,-0.22168810997009275,-1.4512921565070747
1639426096887969000,7.035968994140625,-1.3060627245783805,-0.06622633010149001,-0.6872919438093901
1639426096897958100,7.045958251953125,-1.4337860181719064,0.3314315102368593,-0.5259150946781039
1639426096907948000,7.055947998046875,-1.9049755431890487,0.630672230964899,-0.05461947893798351
1639426096917938000,7.06593798828125,-2.541272043776512,0.3200777570515871,1.4031795752450822
1639426096927928000,7.075927978515625,-2.9450054046362637,-0.2610159117519855,3.329956908136606
1639426096937918000,7.08591796875,-2.472970076444745,-0.5677846898972988,4.552253846530616
1639426096947907800,7.095907958984375,-1.4153519513368606,-0.4024211092174053,3.493132623383403
1639426096957897000,7.10589697265625,-0.7825374476462602,-0.18220014919042588,1.2279998262107372
1639426096967886800,7.115886962890625,-0.9297492855638265,-0.11963234159648417,-0.21563918519467115
1639426096977877000,7.125876953125,-1.349772102445364,-0.06420739149451256,-0.6280886442124843
1639426096987867100,7.1358671875,-1.1079881299078465,0.018745617002248763,-0.28187691347301
1639426096997857000,7.14585693359375,-0.3043096945554018,-0.08684241715073585,0.40409634895324703
1639426097007847200,7.15584716796875,0.12599369332194327,-0.33160745132565494,0.9276239639729261
1639426097017836000,7.1658359375,0.2966314150124788,-0.7073287696659565,1.293853815868497
1639426097027826200,7.175826171875,0.5464882193684578,-1.0667138702332972,1.5617431205213068
1639426097037816000,7.185816162109375,0.6851011557668447,-0.8623498200297355,0.966785469277203
1639426097047806000,7.195805908203125,0.4284299952208996,-0.018581366351246832,-0.45442339139431714
1639426097057796000,7.205796142578125,0.5987631810069084,0.6384387733131647,-1.546404973874986
1639426097067786000,7.215785888671875,0.928334742590785,1.102543308505416,-1.5523293954879045
1639426097077775000,7.225775146484375,1.687104945680499,1.1313707590609787,-0.7132546525835991
1639426097087765000,7.235764892578125,2.3004431800067424,1.0944932730406522,0.3144347827285528
1639426097097755000,7.2457548828125,2.4164684370219707,1.1402882250100375,0.9288464915052056
1639426097107745000,7.2557451171875,2.495571784353256,1.1182523342907429,0.767004362949729
1639426097117735000,7.26573486328125,2.7138603150129317,1.0219283875674008,-0.05575783531814813
1639426097127725000,7.27572509765625,2.8930864168286323,0.9439619353115558,-1.2410118679970503
1639426097137714000,7.2857138671875,2.414887889832258,0.5883090070098638,-1.999241680599749
1639426097147704000,7.2957041015625,1.6645301257789133,0.015272972455620764,-1.8881167628467082
1639426097157694200,7.305694091796875,0.8350678453505038,-0.4624690429449081,-1.3200897886261342
1639426097167684000,7.31568408203125,0.6516361085385084,-0.9212479992002248,-0.2859831797480583
1639426097177674000,7.325674072265625,0.4530886356592178,-0.9778384859502315,1.2046584058508276
1639426097187664100,7.3356640625,-0.04153261834979057,-0.5773918916761874,2.693554901348054
1639426097197653000,7.345653076171875,-0.1774146684795618,0.01956219408214092,3.674147654442489
1639426097207643100,7.35564306640625,-0.06248071383237838,0.330807240858674,4.220644057117402
1639426097217633000,7.365633056640625,0.034979543444514274,0.5788397523969412,4.712792783533036
1639426097227623000,7.375622802734375,0.31693770546019073,0.5139753582984209,4.674081944605708
1639426097237613000,7.385613037109375,0.5390758972853422,0.21465514259338378,4.563431950888037
1639426097247603000,7.39560302734375,0.9559306055247783,-0.07693886277377605,4.403089413240552
1639426097257592000,7.405592041015625,1.3651952970266341,-0.23894728780686855,3.8876992197081446
1639426097267582000,7.41558203125,1.7632219706773757,-0.30733927150964735,3.2091786113753913
1639426097277571800,7.42557177734375,2.0842776328504082,-0.38709962144494053,2.49748550902009
1639426097287562200,7.435562255859375,2.126867651298642,-0.45521804890334605,1.8987088840097188
1639426097297552100,7.44555224609375,1.8334972839087247,-0.43075230068862436,1.4193562185421584
1639426097307542000,7.4555419921875,1.2918173416048289,-0.3405518052816391,1.0507768809109925
1639426097317531100,7.46553125,0.8356202185362577,-0.25481647258996964,1.0410630038872362
1639426097327521000,7.47552099609375,0.7008031672894954,-0.3135153297960758,1.4573375741511583
1639426097337511200,7.48551123046875,0.5979325754016638,-0.4536497766733169,2.0688874637559054
1639426097347501000,7.4955009765625,0.559153055152297,-0.49945261968821286,2.7020649555400014
1639426097357491000,7.505490966796875,0.5639636703044176,-0.5075234056800604,3.1699855418890714
1639426097367481000,7.515481201171875,0.4090396505743265,-0.5808464160442351,3.361911550801992
1639426097377470000,7.525469970703125,0.21180735194683073,-0.6908987361297011,3.345349123057723
1639426097387460000,7.535460205078125,-0.10941899061799049,-0.7862766341745853,3.2713071507692337
1639426097397450000,7.545449951171875,-0.2828425436347723,-1.0718278522461653,3.3844086292922495
1639426097407440000,7.55543994140625,-0.4017594304382801,-1.2473042461395263,3.640076165753603
1639426097417430000,7.565429931640625,-0.37510289418101306,-1.329590899682045,3.7468870196998116
1639426097427420000,7.575419921875,-0.22236790892779826,-1.23802846827209,3.8525399357825516
1639426097437409000,7.585408935546875,0.08364742050170898,-0.9579799392700195,3.8345217562720175
1639426097447399000,7.59539892578125,0.305196998783946,-0.9953215356707572,3.531400102457404
1639426097457389000,7.60538916015625,0.3661760758817196,-0.9088251554787159,3.440415763196349
1639426097467378700,7.615378662109375,0.3632277474701404,-0.725632780380547,3.2331311493709682
1639426097477368600,7.62536865234375,0.4524222807049751,-0.43223932437598706,3.0420816310316323
1639426097487358500,7.6353583984375,0.7212848143041134,-0.0755424399793148,3.054154346141219
1639426097497348600,7.6453486328125,1.1098527547359467,0.4951961312875151,3.092483784535527
1639426097507337500,7.65533740234375,1.6084832443863153,1.1126096522286533,2.9734619760528207
1639426097517327600,7.66532763671875,1.9212550623387097,1.3808534694075583,2.819872712057829
1639426097527317500,7.6753173828125,2.213625897297263,1.4199647058293223,2.4670740041434764
1639426097537307400,7.685307373046875,2.4302935487568376,1.0768068097025156,1.737351616361737
1639426097547297500,7.695297607421875,2.090742444950342,0.2807067006498575,0.8940046029657125
1639426097557287400,7.705287353515625,1.3228952014356852,-0.6386632297188043,0.11075389248356222
1639426097567276500,7.715276611328125,0.6350666665315627,-1.4211001396000384,-0.5568913938306271
1639426097577266400,7.725266357421875,0.1953916391968727,-1.8033251407459376,-0.9483324054807424
1639426097587256300,7.73525634765625,0.01765080750286579,-1.9505355173587797,-0.8855641068786382
1639426097597246500,7.74524658203125,0.11447627400755882,-1.8776035521388053,-0.5717753669686615
1639426097607236600,7.755236572265625,0.21562954058349132,-1.5019070759788156,-0.4754815231226384
1639426097617226500,7.7652265625,-0.0742050538957119,-0.9936831208139657,-0.5131115810759366
1639426097627215600,7.775215576171875,-0.6765133601635694,-0.5321446367174386,-0.49150560620650646
1639426097637205500,7.78520556640625,-0.7268114687711,-0.30341069988906383,-0.5104428002581
1639426097647195600,7.795195556640625,-0.2811380778044462,-0.45778468452095983,-0.1551104822129011
1639426097657185500,7.805185546875,-0.07195464462041855,-0.7363941206306218,0.6868328018650413
1639426097667175400,7.815175537109375,-0.40151685385406016,-1.1397247459083795,1.709556139202416
1639426097677165600,7.82516552734375,-0.21238661313951016,-1.5082941466674207,3.040053047813475
1639426097687154400,7.835154541015625,0.6292214476346969,-1.6712480358570814,3.233698427864909
1639426097697144600,7.84514453125,1.9796745180815458,-1.4847805846109985,3.224882084202766
1639426097707134500,7.855134521484375,3.449505663102865,-1.0706249061971902,4.523005247953534
1639426097717124400,7.865124267578125,4.179312806558609,-0.4324029905050993,4.294674338968098
1639426097727114500,7.875114501953125,3.822352302789688,1.5506579551443456,1.4668362009890377
1639426097737104400,7.8851044921875,2.969122777804732,3.465430961987376,-1.2224475989110768
1639426097747093500,7.895093505859375,1.961367292496562,3.3689982941925525,-4.719754146978259
1639426097757083400,7.90508349609375,-0.0009667992055416107,2.5731951222598552,-7.240630468457937
1639426097767073500,7.915073486328125,-1.8668699766784906,1.4286331654533744,-7.186026771610975
1639426097777063700,7.925063720703125,-2.0901210981816054,0.13229220894426105,-3.9655040516614912
1639426097787053600,7.935053466796875,-0.8143325158357619,-0.7023644252568483,-0.3365580594703555
1639426097797043500,7.94504345703125,0.265880887439847,-1.009264720827341,1.8079460785448551
1639426097807035400,7.955035400390625,0.5409650720328092,-1.2489686722204087,3.2716800757348534
1639426097817025500,7.965025634765625,0.4853098203063011,-1.065220416805148,3.683196345555782
1639426097827014400,7.975014404296875,0.38224925880432126,-0.625317718194425,3.5368481387302277
1639426097837004500,7.985004638671875,0.20056231983304024,-0.22143223551288246,3.662108841602504
1639426097846994400,7.994994384765625,0.30617607294917104,0.34884807059243317,3.8792382653549313
1639426097856984600,8.004984619140625,0.40386078663170333,0.8393973989874124,3.765020350022614
1639426097866974700,8.014974609375,0.2728174087047577,1.1687424583390353,3.530210015890002
1639426097876964600,8.024964599609374,0.053152328994870185,1.3476821444287896,3.1416239552795884
1639426097886953500,8.034953369140625,0.061056818509101864,1.4038193344533443,2.5573189232140776
1639426097896943600,8.044943603515625,0.24835809023082256,1.4409141164861619,1.7293500962138175
1639426097906933500,8.05493359375,0.5372925209999084,1.4168340065881608,0.7238795069724321
1639426097916923600,8.064923583984376,0.9541565815895795,1.2397688821986317,-0.2299859827160835
1639426097926913500,8.07491357421875,1.4335048631429672,0.879528479976207,-0.9078782300174236
1639426097936903400,8.0849033203125,1.9150807576179503,0.4045584135070443,-1.4075696268975735
1639426097946892500,8.094892578125,2.2060200984686613,0.168708872519806,-1.9460656784683465
1639426097956882400,8.10488232421875,2.431846623417735,0.14796879376471042,-2.318974861997366
1639426097966872600,8.11487255859375,2.51689981906414,0.3966510013833642,-2.704428469800949
1639426097976862500,8.124862548828125,2.3074399070262905,0.7728960513368248,-2.9804946511685846
1639426097986852400,8.134852294921876,1.9641455250382422,1.2005512627929449,-3.11151990891695
1639426097996842500,8.144842529296875,1.4978975480765104,1.6762880758509038,-3.3497973346382377
1639426098006831400,8.154831298828125,1.0722253271311522,1.961160371747613,-3.4009137738913298
1639426098016821500,8.164821533203124,0.5551268683761358,2.286017472030222,-3.1118454876095054
1639426098026811600,8.174811767578126,-0.06388122828006744,2.2584315459683535,-2.7707769649773835
1639426098036801500,8.184801513671875,-0.5415104309558868,2.084183524826169,-2.0921873830616473
1639426098046791700,8.194791748046875,-0.5429115299254655,1.9421908828616141,-1.1304086360305547
1639426098056781600,8.204781494140626,-0.15892741015255452,1.8094447926700115,-0.20763269661068914
1639426098066770400,8.2147705078125,0.1453115572541952,1.7541215493768452,0.5021861363053322
1639426098076760600,8.224760498046875,0.3126473147898912,1.6677780216589568,0.8730757967054843
1639426098086750500,8.23475048828125,0.5248609094500541,1.525887963286042,0.857755477976799
1639426098096740600,8.24474072265625,0.6332488034546375,1.4262693589314817,0.49938452288806434
1639426098106730500,8.25473046875,0.6258019945800304,1.305862525831163,0.03407528808116913
1639426098116720400,8.264720458984375,0.5706804113388061,1.279304481512308,-0.3475976321399212
1639426098126710500,8.27471044921875,0.613609452483058,1.4073048384815454,-0.5412976649880409
1639426098136699400,8.284699462890625,0.7759002015888691,1.6547914065748452,-0.5427940410256386
1639426098146689500,8.294689453125,0.6106582014620304,1.7032050166100263,-0.560052049818635
1639426098156679700,8.3046796875,0.7238865212351083,1.6402502555251122,-0.40258594439029693
1639426098166669600,8.314669677734376,0.8533680566728115,1.5297294411450624,-0.47503451000750063
1639426098176659700,8.32465966796875,1.0440934576243162,1.3148121404841542,-0.7466320215284824
1639426098186649600,8.334649658203125,1.237712826451659,0.9544496462520211,-1.0261983199715614
1639426098196638500,8.344638427734376,1.25102706605494,0.4859004796758294,-1.0938421156555413
1639426098206628600,8.354628662109375,1.0152180762737988,0.047914136080443856,-0.946481224656105
1639426098216618500,8.364618408203125,0.7130594222724437,-0.23145342492014168,-0.8908815025091171
1639426098226608600,8.374608642578124,0.24636779319643973,-0.3227624660909176,-0.9749275669395923
1639426098236598500,8.3845986328125,-0.21569792964458465,-0.305102379303053,-0.9560860883474349
1639426098246588400,8.39458837890625,-0.4563216262310743,-0.2944929416790604,-0.7821767976403236
1639426098256577500,8.40457763671875,-0.43603228691816326,-0.21115100692994893,-0.5247901823014021
1639426098266567400,8.4145673828125,-0.4140402353405952,-0.1367399090681225,-0.21078326959609983
1639426098276557600,8.4245576171875,0.3524515019118786,-0.3724106594223529,0.10707096618711948
1639426098286547500,8.43454736328125,0.6881207958489656,-0.5557908852428197,0.4049830686599016
1639426098296537300,8.444537353515624,0.5379512771695852,-0.4777374122906476,0.6255372061640024
1639426098306527500,8.454527587890626,0.45505321373045443,-0.44522769302576776,0.5167068290889263
1639426098316517600,8.464517578125,0.3335790436595678,-0.38539310978800057,0.132911509886384
1639426098326506500,8.474506591796874,0.06715630442798137,-0.3317170491799712,-0.19178221652805805
1639426098336496600,8.48449658203125,-0.2112304288417101,-0.32470249424278735,-0.21812369548678398
1639426098346486500,8.494486572265625,0.00606762947589159,-0.48929341004975135,-0.08383797463774681
1639426098356476700,8.5044765625,-0.0402744349822402,-0.6625553427640348,0.22599077560007572
1639426098366466600,8.514466552734374,0.012025368836522101,-0.700035690048337,0.6005892273902893
1639426098376456400,8.52445654296875,0.35860330253988504,-0.6695752314634621,0.6978975089758634
1639426098386445600,8.534445556640625,0.7554851900696754,-0.6037997138693928,0.5428069005072117
1639426098396435500,8.544435546875,0.8634206641316413,-0.5215253352865576,0.2621276723861694
1639426098406425600,8.554425537109376,0.6740262195229529,-0.4362884536363184,-0.1256178457468748
1639426098416415500,8.56441552734375,0.2892182161465287,-0.33362244440987704,-0.3996943146020174
1639426098426405400,8.5744052734375,-0.05129851782172918,-0.19271379828974602,-0.38030280091166496
1639426098436395500,8.5843955078125,-0.2385012976050377,-0.038809623126685615,-0.27739772223234177
1639426098446384400,8.59438427734375,-0.27919074312895537,0.030245646790415047,-0.2070300545424223
1639426098456374500,8.60437451171875,-0.35774463988393546,-0.048198944371193646,-0.35108021355867386
1639426098466365000,8.614364990234375,-0.10883066933602094,-0.265702754393965,-0.3625619770377874
1639426098476354800,8.624354736328126,0.35031595118790865,-0.4583845501102507,-0.33409517648816106
1639426098486344700,8.6343447265625,0.5156529361218214,-0.5373657323665917,-0.5439040480941534
1639426098496334800,8.6443349609375,0.5360115412786602,-0.5377965249992906,-0.6522036792933941
1639426098506325000,8.654324951171875,0.45067485251575706,-0.4135005755059421,-0.7707084781646728
1639426098516313900,8.66431396484375,0.4087649252861738,-0.19395137726068495,-0.7721446484476328
1639426098526304000,8.674303955078125,0.37869595023691655,0.08553045776933431,-0.6212485690593719
1639426098536294000,8.6842939453125,0.3762777831792831,0.3126525754868984,-0.4621989938318729
1639426098546284000,8.694283935546874,0.3853311504676938,0.4402497584827244,-0.21859072847664354
1639426098556274000,8.70427392578125,0.40110710400938987,0.5885881162121892,0.04025719158649444
1639426098566263800,8.714263916015625,0.5005369077935815,0.6600484014444052,0.26367256374061104
1639426098576253000,8.7242529296875,0.5923311021327972,0.65862699033916,0.2361737314403057
1639426098586242800,8.734242919921876,0.7160758474841713,0.6710669313259422,0.05055003754198551
1639426098596233000,8.74423291015625,0.8612275380015373,0.7216139001280069,-0.2222697092503309
1639426098606222800,8.754222900390625,0.9547475332200527,0.7363219321772456,-0.5364297666907311
1639426098616212700,8.764212646484374,1.0024585479438304,0.7316413731455802,-0.8243406996309757
1639426098626203000,8.774202880859375,1.0282593441545962,0.7301189858838916,-1.1364157674908637
1639426098636192800,8.78419287109375,0.9799649765849113,0.6743263715133071,-1.3889806617617606
1639426098646182000,8.794181884765624,0.9521665768161416,0.5937823238544165,-1.4529396314531564
1639426098656171800,8.804171875,0.9801853413373232,0.5242947999998927,-1.347958915543556
1639426098666161700,8.81416162109375,1.0687518058016896,0.4974905258350074,-1.182328208360076
1639426098676152000,8.824152099609375,1.1558587191075085,0.5259592260807753,-1.004887820917368
1639426098686142000,8.834141845703124,1.2097557289898395,0.624489742937684,-0.8412059097141027
1639426098696131800,8.8441318359375,1.1495417910456658,0.7486778481423855,-0.7663409306049347
1639426098706121000,8.854120849609375,0.9682306996494531,0.8597859608910977,-0.8592097684383392
1639426098716110800,8.86411083984375,0.7293699210822582,0.9852627907320857,-1.1478174514710902
1639426098726101000,8.87410107421875,0.5546133658960462,1.040769427768141,-1.3569611371666193
1639426098736091000,8.8840908203125,0.45580081722736354,0.9680836923941969,-1.2786392956018446
1639426098746080800,8.894080810546875,0.43522213957905764,0.8109367359176277,-0.929000513023138
1639426098756071000,8.90407080078125,0.46176644763350483,0.5211339978814125,-0.5562158326566219
1639426098766059800,8.914059814453125,0.5582523069202899,0.2915931285843253,-0.2993769143283367
1639426098776050000,8.9240498046875,0.7098948207616805,0.17211100911349056,-0.1903893008649349
1639426098786039800,8.934039794921874,0.7778279547810554,0.1606312914609909,-0.2342436401605606
1639426098796029700,8.94402978515625,0.7441726456776261,0.21742972187325357,-0.34966859319508076
1639426098806019800,8.954019775390625,0.662211278566718,0.2991659019261598,-0.4114484652817249
1639426098816010000,8.964010009765625,0.5532394471943378,0.25454525443315507,-0.4125555497407913
1639426098826000000,8.973999755859374,0.401933033439517,0.08427373570650816,-0.3972498440593481
1639426098835989000,8.983989013671875,0.3176321174651384,-0.0749139328174293,-0.3834896142542362
1639426098845979000,8.993978759765625,0.3669020520687103,-0.1512049992069602,-0.38129882621169087
1639426098855969000,9.003968994140624,0.5216553914070129,-0.1181324584275484,-0.3857072903037071
1639426098865959000,9.013958984375,0.7629308299005031,-0.054209217636659736,-0.3941846112698316
1639426098875948800,9.02394873046875,0.9356132091611623,0.023653043592348693,-0.41801615323424335
1639426098885939000,9.03393896484375,0.8917167842894792,0.03694499829858541,-0.4641851992130279
1639426098895928800,9.0439287109375,0.9229752613842487,-0.006896846841648221,-0.5985358019918203
1639426098905918000,9.05391796875,0.7281453477233648,-0.07976561063230037,-0.7371534145653248
1639426098915907800,9.063907958984375,0.7323749481171369,-0.15925181980133055,-0.8990589637458324
1639426098925897700,9.073897705078124,0.8501642921954393,-0.2559951609805226,-1.1084522402882575
1639426098935888000,9.083887939453126,0.7267635379761457,-0.1312041579792276,-1.1592045224040746
1639426098945877800,9.093877685546875,0.5798328550875187,0.16796819195402785,-1.0771236205667256
1639426098955868000,9.103867919921875,0.49586511659026145,0.45437019990235566,-0.9657891517162323
1639426098965856800,9.113856689453126,0.4121808712095022,0.6178045660853385,-1.0578858361333607
1639426098975847000,9.123846923828125,0.390038012984395,0.661691054084897,-1.246747196778655
1639426098985837000,9.133837158203125,0.5872030915945768,0.5902133793264627,-1.4127683645844458
1639426098995827000,9.143826904296875,0.8753940105199813,0.43895372732281684,-1.5409972696125507
1639426099005816800,9.15381689453125,1.2027449734449387,0.325376447981596,-1.5032231270134448
1639426099015807000,9.163806884765625,1.4579945767551659,0.2922439937084913,-1.3056301783800124
1639426099025795800,9.1737958984375,1.680806722319126,0.44868134061098097,-1.0127332737207413
1639426099035786000,9.183785888671874,1.866555503901839,0.7057151969894766,-0.2557324183911085
1639426099045776000,9.19377587890625,1.875257865795493,1.1103946795929223,0.20730711791813372
1639426099055765800,9.203765869140625,1.8415864823400974,1.7977166532143949,0.09709785370528698
1639426099065756000,9.213755859375,1.8968723162323236,2.177034242480993,0.3263216198772192
1639426099075745800,9.223745849609376,1.7313298718541859,2.179201357387006,0.34993221256732937
1639426099085735700,9.233735595703125,1.496456701618433,1.9497113414943217,0.12441197708845138
1639426099095724800,9.243724853515625,1.220014088153839,1.6237950875476002,-0.3767126674652099
1639426099105714700,9.253714599609374,1.032118357670307,1.2615345776744187,-0.929381036773324
1639426099115704800,9.263704833984375,0.7059516360938549,1.002849008566141,-1.1668699424654245
1639426099125695000,9.273695068359375,0.3351420551925897,0.7970707076504826,-1.0303367349505423
1639426099135684900,9.283684814453125,0.03847498434484005,0.6217367909677326,-0.6319453196406364
1639426099145675000,9.293675048828124,0.14401625674664972,0.44386721832752224,-0.23873393731713294
1639426099155665000,9.303664794921875,1.0645160679280756,0.28485066858679053,0.15651158118247985
1639426099165654000,9.313654052734375,1.1624971342086792,0.3398205683976412,0.2488303839176893
1639426099175644000,9.323643798828124,0.9389701183736324,0.3833493290007114,0.18228899651765823
1639426099185633800,9.3336337890625,0.6442758089035749,0.4953998371660709,-0.020058453166484833
1639426099195624000,9.3436240234375,0.17181962495148181,0.7422901929318905,-0.28325755417644977
1639426099205613800,9.35361376953125,-0.09724807583093642,1.0375624484203756,-0.3352531143516302
1639426099215603700,9.363603759765626,-0.10952128194868564,1.3362858672760427,-0.16473229703903197
1639426099225592800,9.3735927734375,0.07041209135353564,1.6121023116663098,0.24313041871041058
1639426099235582700,9.383582763671875,0.2025111158132553,1.798561287344992,1.063683708757162
1639426099245572900,9.39357275390625,0.0023135376393795012,1.8383795029923318,1.6090753650605678
1639426099255562800,9.403562744140626,-0.68975395000875,1.7385459407128392,1.2123664960101246
1639426099265553000,9.413552978515625,-1.4591250420898199,1.4159696448437868,0.7756058948174118
1639426099275543000,9.42354296875,-1.7055436886906623,0.9625932782843708,0.5582575676172972
1639426099285533000,9.433532958984374,-1.4873632945805788,0.6648042176693677,-0.12168722829967736
1639426099295522000,9.44352197265625,-0.7876449999183416,0.5628583394110203,-0.8653989784672855
1639426099305512000,9.453511962890625,0.06554010140299797,0.535931754040718,-1.1147127619877457
1639426099315501800,9.463501708984374,1.0575064814269541,0.41063130367994305,-0.8684984057873487
1639426099325492000,9.473491943359376,1.892591277912259,0.325577815772593,-0.39923634170144795
1639426099335481900,9.48348193359375,2.2417460763663053,0.3414914242193103,-0.3762608320444822
1639426099345471700,9.4934716796875,2.3672253904253244,0.2839163103461265,-0.7198316928863525
1639426099355460900,9.5034609375,2.3353765462219713,0.23813743272870777,-0.9911115167602896
1639426099365450800,9.51345068359375,2.387446340677142,0.2939578118890524,-0.8613789291709661
1639426099375441000,9.52344091796875,2.036107183921337,0.4172784866094589,-0.6330544499263167
1639426099385430800,9.5334306640625,1.0885451782912015,0.7141194527193904,-0.4887196287497878
1639426099395420700,9.543420654296876,-0.046446693876385683,1.1240955073609948,-0.3227335322573781
1639426099405411000,9.5534111328125,-0.6446972491860389,1.4360627309322356,-0.21302213456407187
1639426099415401000,9.56340087890625,-1.0429238293230534,1.5031217124655842,-0.3513432484090328
1639426099425390000,9.57339013671875,-1.4721177946537731,1.28912006534487,-0.6359906495086849
1639426099435380000,9.5833798828125,-1.5658265904426574,0.8385033727571368,-0.8859210305575281
1639426099445369900,9.593369873046875,-1.3338947343558072,0.21379414184987544,-0.8756848101601004
1639426099455357700,9.603357666015626,-0.8702244989275931,-0.5518675743192434,-0.38407588970959183
1639426099465348400,9.613348388671875,-0.2527648007571697,-1.1306781006217002,0.5031788006044924
1639426099475337200,9.623337158203125,0.44223815582096576,-1.4537640995785592,1.2479673862233758
1639426099485327400,9.633327392578124,0.9987550172507762,-1.6520742565706372,1.6414026404306292
1639426099495317200,9.643317138671875,1.4372615853279829,-1.4615996155098079,1.7652274652808904
1639426099505307100,9.65330712890625,1.8992168335318564,-1.0244698887437582,1.5751888775497673
1639426099515297300,9.66329736328125,1.9557693263590334,-0.5621902308911085,1.32605205803141
1639426099525287200,9.673287109375,1.562957172486186,-0.02314414422214031,1.0341235600128769
1639426099535277000,9.683277099609375,1.2126666480004786,0.3588794891327619,0.8107153482519089
1639426099545266200,9.69326611328125,0.9646224460244178,0.6172112763673067,0.826315214574337
1639426099555256000,9.703256103515624,0.866080823251605,0.6093149701595306,1.1259453730113804
1639426099565246200,9.71324609375,0.7847603843927383,0.2436807460695505,1.4677761121876538
1639426099575236000,9.723236083984375,0.5871715274125338,-0.2673497909486294,1.5923717752799391
1639426099585226200,9.733226318359375,0.4567413129478693,-0.8242758177012205,1.461736539762467
1639426099595216400,9.74321630859375,0.6650333502501249,-1.4284914188951252,1.1676814049787818
1639426099605206300,9.753206298828125,0.6274690510094165,-2.013732855027914,1.7728166052356362
1639426099615195400,9.7631953125,0.35564182238578795,-2.228218486273289,1.9717747047424314
1639426099625185300,9.773185302734374,0.45478959435820576,-2.2137240969747305,2.00463462568447
1639426099635175200,9.783175048828125,0.6335702904939651,-2.0749866574138403,2.0854699113748967
1639426099645165300,9.793165283203125,0.2794622535467148,-1.6937503750443457,2.0149058443300425
1639426099655155200,9.8031552734375,0.1715279485285282,-1.2192097860336304,2.001384099455923
1639426099665145000,9.81314501953125,0.05722001682519912,-0.6601923399597406,1.8603652709595857
1639426099675134200,9.82313427734375,-0.1566618033081293,-0.028138299247622487,1.488261704725027
1639426099685124000,9.8331240234375,-0.21316227368712423,0.5219903224498034,1.0211460050180554
1639426099695114200,9.8431142578125,0.06980126597881317,0.732846657282114,0.6640490153878927
1639426099705104100,9.853104248046876,0.5126251127332448,0.4745476032733917,0.627869156242907
1639426099715094000,9.863093994140625,0.683183339446783,0.0784177031546831,0.7313122873216867
1639426099725084200,9.873084228515625,0.5012269358843565,-0.3262158214151859,0.8208382444679737
1639426099735074300,9.88307421875,0.06500818648338318,-0.5839397058844567,0.9601552374824881
1639426099745063200,9.893063232421875,-0.3344827145010233,-0.6696873135358095,1.2253750306650995
1639426099755053300,9.90305322265625,-0.6223492237776518,-0.8478326343774795,1.490458630247414
1639426099765043200,9.913043212890624,-0.684914108762145,-1.0608984619528055,1.6882736971989274
1639426099775033300,9.923033447265626,-0.4073965595424175,-1.1872282553613185,1.7993588674634693
1639426099785023200,9.933023193359375,-0.047971711486577986,-1.0160434211820364,1.7558152015522122
1639426099795013000,9.94301318359375,0.14055997881293297,-0.7006763260394334,1.553346463575959
1639426099805003300,9.953003173828124,0.17873802603781222,-0.34456162544488905,1.3137222994208335
1639426099814992100,9.9629921875,0.21977087817192076,-0.07903262018263339,1.173193300268054
1639426099824982300,9.972982177734375,0.2860907317757606,0.07037175934314728,1.2309592605382202
1639426099834972200,9.98297216796875,0.4580658395498991,0.06268705005943775,1.4437766663104294
1639426099844962000,9.992962158203126,0.6936573871880769,-0.09206570475697518,1.74510471470654
1639426099854952200,10.0029521484375,0.9149158735692501,-0.39856268022358415,1.9665575546160339
1639426099864942000,10.012942138671875,0.7684978163778782,-0.762224142935872,1.8912398633033036
1639426099874931200,10.02293115234375,0.80844287327528,-1.2081921329349279,1.8239266147479414
1639426099884921000,10.032921142578125,0.9881021058112383,-1.522887612426281,1.7660557327985762
1639426099894911200,10.0429111328125,1.074325514280796,-1.6264420949250458,1.7080863589107989
1639426099904901400,10.0529013671875,0.9500748652338981,-1.5546417640835046,1.7605138807624579
1639426099914891300,10.062891357421876,0.6126625270217657,-1.415655318197608,1.9524083254933355
1639426099924881200,10.072881103515625,0.03120119394958019,-1.2521645456522703,2.313297108621895
1639426099934871300,10.082871337890625,-0.4321884709715843,-1.1439192749887703,2.7307547511905432
1639426099944860200,10.092860107421876,-0.5900526358067989,-1.123688387864828,3.0055165719613433
1639426099954850300,10.102850341796875,-0.43438978040814397,-1.101487661972642,3.1280209618628025
1639426099964840200,10.112840087890625,0.046239188605546946,-1.0753788227260113,3.1145880643159147
1639426099974830000,10.122830078125,0.7025754376590252,-1.1331675793498754,3.0162194600224495
1639426099984820200,10.1328203125,1.346489427512884,-1.3271838385403156,2.918726469519734
1639426099994810000,10.14281005859375,1.6972557528167962,-1.6997767957270145,2.727130715474486
1639426100004800000,10.152800048828125,1.678732838654518,-2.1868150472611187,2.524496265542507
1639426100014789000,10.1627890625,1.7254057425022125,-2.429806057500839,2.6916461451172826
1639426100024779000,10.172779052734375,1.7486638684928417,-1.6944582310527563,2.9618349588841197
1639426100034769400,10.182769287109375,1.4187749115228652,-0.2198351755797863,2.8227544049739834
1639426100044759300,10.19275927734375,0.6137585055649281,1.2810025176018476,1.9767222441472112
1639426100054749200,10.202749267578126,-0.17481471511423588,2.368535303980112,0.8583370772570371
1639426100064739300,10.2127392578125,-0.5931845040917396,3.099623134896159,-0.30398338521048424
1639426100074728200,10.222728271484375,-0.939750455096364,3.5717373735427853,-1.7048254574187098
1639426100084718300,10.23271826171875,-1.1914449962735176,3.65612012258172,-3.5105312096908685
1639426100094708200,10.242708251953125,-1.1052098973661661,3.2986429014623164,-5.78183568123579
1639426100104698000,10.252697998046875,-0.8895546378195285,2.5490783336132763,-7.590920408421755
1639426100114688300,10.262688232421874,-0.8559399529874324,1.218292671188712,-7.398900291484594
1639426100124678100,10.27267822265625,-0.5371510667026043,0.26381577160358427,-5.578049723181128
1639426100134668000,10.28266796875,0.20909750846624373,0.23385317953824997,-4.418742617185414
1639426100144657200,10.2926572265625,1.3349661629796028,0.3140881612479687,-3.1004896885976194
1639426100154647000,10.30264697265625,2.7476971181631087,0.17635902194678782,-1.3107944292753935
1639426100164637200,10.31263720703125,3.944840033817291,-0.07976210350096226,0.6286123758256436
1639426100174627000,10.322626953125,4.993678055620193,-0.21692659465670586,2.1318205975309015
1639426100184617200,10.3326171875,5.0769630725502966,-0.25129881985783575,3.279088890686631
1639426100194607400,10.342607421875,3.3078087892144916,-0.22995032688081263,3.7676615121811627
1639426100204597200,10.35259716796875,1.3607780651062726,0.3249707897901535,2.311031794038415
1639426100214586400,10.36258642578125,-0.13992343447506428,0.9020850335687398,-0.18232962078899145
1639426100224576300,10.372576171875,-0.9959890596687793,1.074838139978051,-2.370450197690725
1639426100234566100,10.382566162109375,-1.1258663164258003,1.1254875462412834,-3.9007624071598053
1639426100244556300,10.392556396484375,-0.6022860944360494,1.2222235808968542,-4.060052805405855
1639426100254546200,10.402546142578124,0.21393325805962085,1.2290963892757891,-3.03194017624557
1639426100264536000,10.4125361328125,0.3618038521468639,1.1249614765405653,-1.6120584725245832
1639426100274526200,10.422526123046875,-0.5172177012205124,1.287120708221197,-0.40816900521963834
1639426100284515000,10.43251513671875,-2.0182056165277955,1.4554144971340894,0.8068287160769104
1639426100294505200,10.442505126953124,-3.5615269451737404,1.1212912635952235,1.9945663822650908
1639426100304495000,10.4524951171875,-4.373727709677815,0.02556757197678089,2.6139441890165207
1639426100314485000,10.462485107421875,-4.580888697123528,-0.5464461337924004,0.6919052828237414
1639426100324475400,10.472475341796875,-4.611709951844811,-1.3346686413377522,-0.5624345610409974
1639426100334465300,10.48246533203125,-4.446624019062519,-1.9115560906231401,-1.0223185559287666
1639426100344455200,10.492455078125,-4.958841720038652,-2.0948972265422343,-1.1971271335631608
1639426100354444300,10.5024443359375,-4.927015087667107,-1.6322282771110534,-1.1755477544397115
1639426100364434200,10.51243408203125,-3.7816473674356934,-0.7943851218283176,-1.1967214753717184
1639426100374424300,10.52242431640625,-2.0529741475701333,-0.08971768032610417,-1.4277026066049932
1639426100384414200,10.532414306640625,-0.17575228822529315,0.34469665000140665,-1.8028709672376513
1639426100394404000,10.542404052734375,1.5722463943570852,0.5470926150023937,-2.131590295906365
1639426100404394200,10.552394287109376,3.0495354541689155,0.5570552060902119,-1.967840580163896
1639426100414383000,10.562383056640625,3.573795475116372,0.3426303651213646,-1.771927547441423
1639426100424373200,10.572373291015625,3.2971248981148005,0.1582131244033575,-1.4283151855453848
1639426100434363100,10.582363037109374,2.8383178848087787,-0.13936463154852388,-0.6998746542677283
1639426100444353000,10.59235302734375,2.0331243687182665,-0.33198797507584094,-0.15416443353444337
1639426100454343200,10.60234326171875,0.6485732138365506,-0.3041471974700689,0.09882043971419334
1639426100464333300,10.612333251953125,-0.6119231068313121,-0.13380845872610805,0.4920236387312412
1639426100474323200,10.6223232421875,-1.425337923300266,0.010004968924820423,1.097686808384955
1639426100484312300,10.632312255859375,-1.6851415366530418,0.08138006009161472,1.7463211047589777
1639426100494302200,10.64230224609375,-1.609571039623022,0.05738076034486293,2.1173215320572254
1639426100504292600,10.652292724609374,-1.2423679587811232,-0.10053571919947862,2.18177705309391
1639426100514282500,10.662282470703126,-0.7080424708932638,-0.26204408575594423,2.023752144739032
1639426100524272400,10.6722724609375,-0.14137830945849417,-0.3119265992999077,1.7014385914593935
1639426100534262500,10.682262451171875,0.27696634507775303,-0.3076245181918144,1.2568807605192065
1639426100544252400,10.69225244140625,0.4817097499877214,-0.28815906248241663,0.8805553388059139
1639426100554241500,10.702241455078125,0.43266427178978917,-0.16626812830418347,0.6560884117722511
1639426100564231400,10.7122314453125,0.34568215390741824,0.08359101413935423,0.5424237464085221
1639426100574223400,10.722223388671875,0.3124871557921171,0.3064201108381152,0.41648061423003674
1639426100584213500,10.732213623046874,0.2067249341160059,0.426530591340363,0.18630320059508085
1639426100594202400,10.742202392578125,0.0040332010388374325,0.46712651336193084,0.015235855315625667
1639426100604192500,10.752192626953125,-0.14275778111815451,0.4524532603651285,0.019778467181324956
1639426100614182400,10.762182373046874,-0.21357611518502234,0.40893209854662416,0.15183189893364907
1639426100624172500,10.772172607421876,-0.24502923806905744,0.3713984867051244,0.2818082321509719
1639426100634162400,10.782162353515625,-0.3237251736432314,0.34138854836672544,0.3623848669052124
1639426100644152300,10.79215234375,-0.42080490716993807,0.32853052809834477,0.36545711395740504
1639426100654141400,10.802141357421876,-0.5044704478502273,0.24209756853133438,0.302888137319684
1639426100664131300,10.81213134765625,-0.7021136653661727,0.14798106872439384,0.13652560873031616
1639426100674121500,10.82212158203125,-0.9796937584280967,0.18244857099354267,-0.07399170340597629
1639426100684111400,10.832111328125,-1.1762333986163138,0.23514205030500887,-0.2494824180856347
1639426100694101200,10.842101318359376,-1.218503683590889,0.2943245993748307,-0.3133472797527909
1639426100704091400,10.85209130859375,-1.1531184804886578,0.2666851895600557,-0.37049101647138594
1639426100714081300,10.862081298828125,-1.0706710834264754,0.11726736603081225,-0.46703912733942266
1639426100724070400,10.8720703125,-0.9593991584181785,-0.10044482604563236,-0.4549360170915723
1639426100734060300,10.882060302734375,-0.6590034224361181,-0.2845332732006907,-0.3177938838981092
1639426100744050400,10.892050537109375,-0.340764571249485,-0.3395177860587835,-0.15026698770448566
1639426100754040600,10.90204052734375,-0.24096388832628726,-0.3358025649279356,-0.0691783117748797
1639426100764030500,10.912030517578126,-0.17974048107862473,-0.16417232506871224,-0.20036080591157077
1639426100774020400,10.922020263671875,-0.26008652194738385,0.2836062214836478,-0.5722206265181302
1639426100784010500,10.932010498046875,-0.5008692084878683,0.9181012256070971,-1.1319782234348357
1639426100793999400,10.941999267578124,-0.38030280091166496,1.5174705558136106,-1.724595595163107
1639426100803989500,10.951989501953125,0.014208558094501495,1.8216764977335929,-2.6456977561518547
1639426100813979400,10.9619794921875,0.2160749462634325,1.6961065827816724,-3.7342011411279437
1639426100823969300,10.97196923828125,-0.031207039168477058,1.449368787229061,-4.014428826089203
1639426100833959400,10.98195947265625,-0.4491109641999006,1.4891536851286886,-3.4177047496944666
1639426100843949300,10.99194921875,-0.5824690488100052,1.6820985156953334,-2.7420746021062135
1639426100853939200,11.001939208984375,-0.2878261772662401,1.7268804912298916,-2.4885130980134007
1639426100863928300,11.01192822265625,0.03487432950437069,1.4284902498513459,-2.681343362289667
1639426100873918200,11.021918212890625,0.09738368490934371,0.7835492550373077,-2.9260344544455408
1639426100883908400,11.031908447265625,0.5976017360121011,0.011293547430634498,-2.6630688699305054
1639426100893898500,11.0418984375,0.9265589650899171,-0.7324298931747675,-1.9788187780350446
1639426100903888400,11.051888427734376,0.5860533370375632,-1.2736457250982522,-1.0608224741071461
1639426100913878500,11.06187841796875,0.6587000555753707,-1.708449931526184,-0.42994682952463625
1639426100923868400,11.071868408203125,1.659461736473441,-1.7000211258769033,-0.7048217552810907
1639426100933857500,11.081857421875,3.5148768376797435,-1.6028414391070602,-1.1172037020206451
1639426100943847400,11.091847412109376,4.339112907892465,-1.4809987279847263,-1.4242214864909648
1639426100953837300,11.10183740234375,3.9637037242412565,-0.5333528434634208,-2.1225100406110284
1639426100963827500,11.111827392578125,3.6110640062808987,0.7218181905284523,-2.7854081323981283
1639426100973817300,11.1218173828125,3.698805418097973,1.0923743811905384,-3.4198096130192277
1639426100983807200,11.13180712890625,3.729198802796006,0.821563051611185,-3.526031853422522
1639426100993797400,11.14179736328125,2.7039836486428976,0.44876609628498554,-4.178231441062689
1639426101003786200,11.1517861328125,1.961340989011526,0.44062487540543077,-5.633856950598955
1639426101013776400,11.1617763671875,3.657200319033861,0.6308627851009369,-6.118238550144434
1639426101023766300,11.171766357421875,5.501307259762287,0.4340566029310226,-6.368803210508823
1639426101033756400,11.18175634765625,6.258299347263574,-0.03245002496689558,-6.0935319789111615
1639426101043746600,11.19174658203125,5.752594389182329,-0.4434551303952932,-4.888844054704904
1639426101053736400,11.201736328125,4.389512138786912,-0.808336490291357,-3.216385474014282
1639426101063726300,11.211726318359375,2.2876900814175603,-0.9780983059301972,-2.398917582762241
1639426101073715500,11.221715576171874,0.8274550322592258,-0.4168637683287263,-1.145434355726838
1639426101083705300,11.231705322265626,-0.7569225293964147,0.5280825018450618,0.022054595419764518
1639426101093695500,11.241695556640625,-3.510878707954287,0.7151873742118477,0.9452911380887031
1639426101103685400,11.251685302734375,-5.351614710944891,0.924696093827486,1.776052810677886
1639426101113675300,11.26167529296875,-6.850330005145072,1.5908840209402142,3.0740690069228407
1639426101123665400,11.27166552734375,-7.4800997343122955,2.8852418408080935,4.503424349170923
1639426101133655300,11.2816552734375,-7.5804048596262925,3.6449312045693394,5.550849581566452
1639426101143644400,11.29164453125,-7.410427063149213,3.347565922324359,5.892780273985863
1639426101153634300,11.30163427734375,-6.101704179450869,3.467667342737317,6.408016446000337
1639426101163624200,11.311624267578125,-3.9586797585994002,3.5950106971025466,7.720712324982881
1639426101173614600,11.321614501953125,-2.4007722707182166,2.669228269343078,7.501254750543833
1639426101183604500,11.3316044921875,-1.4134540087610483,0.7042416173055768,5.412053105294704
1639426101193594400,11.341594482421876,-0.45706455355286596,-1.5597867257565259,1.8814076205968855
1639426101203584500,11.35158447265625,-0.041780455631017684,-2.8057912874743343,-1.2161048057556152
1639426101213573400,11.361573486328124,0.2823195426739752,-1.9222233228489756,-3.283971402031183
1639426101223563500,11.3715634765625,0.4102246225751936,-0.04066898725777864,-4.6406507996469735
1639426101233553400,11.381553466796875,1.1456834351170808,1.6392054226472972,-3.757722301968932
1639426101243543300,11.391543212890625,1.377201230510324,2.6166733217194675,-1.8299498205602167
1639426101253533400,11.401533447265624,0.5062381151098758,2.142746480692923,0.23721827205717563
1639426101263523300,11.4115234375,0.10057634347081183,1.4548510180324314,1.694471675056219
1639426101273513200,11.42151318359375,-0.06747719781226479,0.4537307329550385,2.3670985491752625
1639426101283502300,11.43150244140625,0.3576011397600174,-0.3326414705485105,2.0830670880168674
1639426101293492200,11.4414921875,1.4682301395654678,-0.6558245001390576,1.0073539187699556
1639426101303482400,11.451482421875,2.9501661484003066,-0.6036965457558632,-0.11926000115275383
1639426101313472300,11.46147216796875,3.6974282845258712,-0.42981677340418095,-0.641314036488533
1639426101323462400,11.47146240234375,3.03656549795866,-0.4132654515758157,-0.4839104749023914
1639426101333452500,11.48145263671875,1.7966566227674483,-0.5848217494159936,0.18302841670811176
1639426101343442400,11.4914423828125,0.9116763071261346,-0.6124620360136032,0.8768927246451378
1639426101353432300,11.501432373046875,0.7727600038670003,-0.44791108689084647,1.5065321054309606
1639426101363421400,11.51142138671875,1.1331471210837363,-0.18730916276723145,1.5928315017461776
1639426101373411300,11.521411376953125,1.1562786980852484,0.08745952613577246,1.6116911005169152
1639426101383401500,11.5314013671875,1.8571590222641825,0.01669379903897643,1.4017214853912592
1639426101393391400,11.541391357421874,1.8474781707271932,-0.23034327172115443,1.0946031631559132
1639426101403381200,11.55138134765625,1.2319696066245436,-0.4212007746197283,0.7812959231525659
1639426101413371400,11.561371337890625,0.5825695865750312,-0.4849719666540622,0.5521861387491226
1639426101423361300,11.571361328125,0.03442570895403623,-0.5755041782334447,0.33913550874292847
1639426101433350400,11.581350341796876,0.022692601062357425,-0.45916868622526524,-0.0383200860440731
1639426101443340300,11.59134033203125,0.33371143786758184,-0.16811974752023814,-0.35674890684485433
1639426101453330200,11.601330078125,0.897200184136629,-0.042917642967402934,-0.4363531894356012
1639426101463320600,11.611320556640624,1.6060633237630129,-0.22627105384618043,-0.29421675508618356
1639426101473310500,11.621310546875,2.236479534140229,-0.5210962962195277,-0.055412675142288204
1639426101483300400,11.63130029296875,2.461162734273076,-0.4985547940656542,-0.029478607940673827
1639426101493290500,11.64129052734375,2.2655320256233216,-0.3000526216328144,0.040783261287212366
1639426101503279400,11.651279296875,1.6975310626268385,0.14755466000586748,0.2962871316194534
1639426101513269500,11.66126953125,1.2003379123032092,0.5078405088052154,0.44703181983828544
1639426101523259400,11.67125927734375,0.7329524557441472,0.5323587178595364,0.6161106216490269
1639426101533249300,11.681249267578124,0.9934311918795108,0.5005841079361737,0.8078647811263799
1639426101543239400,11.691239501953126,0.9809154091775417,0.45218438029587266,0.8105833924353122
1639426101553229300,11.701229248046875,0.5444821402430534,0.31739129444658754,0.7470844414710998
1639426101563219200,11.71121923828125,0.4117097465664148,0.2049732681430876,0.38194530742168425
1639426101573208300,11.721208251953126,0.28150106589794155,0.10876841775476932,-0.21518588846921918
1639426101583198200,11.7311982421875,-0.21997779892086983,-0.01177227085828781,-0.3386193759143352
1639426101593188400,11.741188232421875,-0.7235983519434929,0.007494009017199278,-0.2654676304638386
1639426101603178500,11.751178466796874,-1.0848352178573608,0.11972557283788919,-0.02106850699186325
1639426101613168400,11.76116845703125,-1.2136012985020874,0.34617534425184127,0.32218905011713506
1639426101623158500,11.771158447265625,-1.2904624198645354,0.5088401873670518,0.612410013565421
1639426101633148400,11.7811484375,-1.283696578991413,0.6318319223940372,0.4770832592308521
1639426101643137500,11.791137451171876,-0.8176929321795702,0.597878945518285,0.5206698875010013
1639426101653127400,11.80112744140625,-0.5676186856806278,0.46141003541126846,0.5213432567179203
1639426101663117300,11.811117431640625,-0.5362596708208323,0.2656928175218403,0.5056956057310104
1639426101673107500,11.821107421875,-0.4497083455711603,0.11785583344325423,0.30300095004439354
1639426101683097300,11.831097412109376,-0.4756453353822231,0.023253157554566858,0.07064590010941028
1639426101693087200,11.841087158203125,-0.6598831278800964,-0.15258257117047905,0.00016775778234004974
1639426101703077400,11.851077392578125,-0.6672638857811689,-0.295240691306442,0.019727029255032537
1639426101713066200,11.861066162109376,-0.3723194009423256,-0.26537293791770933,0.03145838358104229
1639426101723056400,11.871056396484375,-0.3746235862314701,-0.07093786879330873,-0.03293371683061123
1639426101733046300,11.88104638671875,-0.48874505545198915,0.1834324674643576,-0.08755670289993285
1639426101743036200,11.8910361328125,-0.4903992523998022,0.27482567978724837,-0.008670797711610794
1639426101753026600,11.901026611328126,-0.3077759093612432,0.22279709412530063,0.10641513262689113
1639426101763016400,11.911016357421875,-0.2081535056143999,0.10348214791491626,0.18722294578850268
1639426101773006300,11.92100634765625,-0.17166648021638392,-0.10602774074450134,0.21968495345413683
1639426101782995500,11.930995361328126,-0.1422884100407362,-0.2521313251592219,-0.14631693490445613
1639426101792985300,11.9409853515625,-0.0577525162667036,-0.34303616944327947,-0.2383814706176519
1639426101802975500,11.9509755859375,-0.024824060133099554,-0.36408655625656244,-0.11132803910970687
1639426101812965400,11.96096533203125,-0.04796060557067394,-0.28955826175585386,0.09778583596944808
1639426101822955300,11.970955322265626,-0.09377133963108063,-0.09819733937978745,0.13925298786759377
1639426101832945400,11.9809453125,-0.08190496074855327,0.03243292770162225,0.07978197724521159
1639426101842935300,11.990935302734375,-0.07857552406489848,0.03907704189121723,0.005863339075446129
1639426101852924400,12.00092431640625,-0.08928571864962577,-0.032954467357695104,0.006553659427165985
1639426101862914300,12.010914306640625,-0.12243629310131073,-0.14070698606818913,0.1017851347386837
1639426101872904200,12.020904296875,-0.11201309876441955,-0.20395430035889148,0.1103290912002325
1639426101882894300,12.030894287109374,-0.13302724522054193,-0.16786518823727964,0.07290273912549018
1639426101892884500,12.040884521484376,-0.24533903467059134,-0.20464739718958735,-0.02517886492013931
1639426101902874400,12.050874267578125,-0.3168283998668194,-0.2190994086511433,-0.03128536510169506
1639426101912864500,12.060864501953125,-0.15844050341844557,-0.1330579326197505,-0.1497293736964464
1639426101922854400,12.0708544921875,0.17750526937246322,-0.16329831871315836,-0.4477689019411802
1639426101932843500,12.080843505859375,0.6365010832488537,-0.0591425093203783,-0.14281623330712317
1639426101942833400,12.09083349609375,0.9364438147664069,0.13919950411468743,0.14849135633409022
1639426101952823300,12.1008232421875,0.9974643929183482,0.2195537282899022,0.09010755642652511
1639426101962813400,12.1108134765625,0.5909884553521871,0.2551385441511869,0.05057517198324203
1639426101972803300,12.12080322265625,-0.003095627927780151,0.23733181543424725,-0.023712299498915672
1639426101982793200,12.130793212890625,-0.25595687479674817,0.2720451091580093,-0.033143560189008714
1639426101992783400,12.140783447265624,-0.11315876166820525,0.33594621118232604,0.011998480829596519
1639426102002772200,12.150772216796875,0.1671966413259506,0.2858705131538212,0.110921211874485
1639426102012762400,12.160762451171875,0.28349253197610375,0.12132745507657527,0.11825403898060322
1639426102022752300,12.170752197265625,0.17687223216593265,-0.05320530129112303,0.09692775783538818
1639426102032742400,12.180742431640626,-0.018905776000022887,-0.3219884129785001,0.06789455557465553
1639426102042732500,12.190732666015625,-0.12835808436572552,-0.5553365656040609,-0.005191723424196243
1639426102052722400,12.200722412109375,0.04128127393722534,-0.5813716089621186,-0.06538812571167946
1639426102062712300,12.21071240234375,0.23771277757585046,-0.385487875399366,-0.010143792873620987
1639426102072701400,12.220701416015626,0.21333704573214052,-0.08898987750820815,0.04652677337527275
1639426102082691300,12.23069140625,0.12070084761083125,-0.04206446020416915,0.08329436928033829
1639426102092681500,12.240681396484375,0.11811258468329906,-0.031139453824982045,0.07229775896966457
1639426102102671400,12.25067138671875,0.19591361724436282,-0.030464038781449196,0.006195932030677795
1639426102112661200,12.2606611328125,0.32323709786534305,-0.06717237877994775,-0.01105856963098049
1639426102122651400,12.2706513671875,0.5478934099912643,-0.046697161506116386,0.010616671082377432
1639426102132641300,12.280641357421874,0.715149672549963,-0.017365414690226316,-0.009085223731398582
1639426102142631200,12.290631103515626,0.7674450924545526,0.004883022801205516,-0.06864449715912342
1639426102152620300,12.300620361328125,0.6282365282505751,-0.058514367484673854,-0.05237257679402828
1639426102162610200,12.310610107421875,0.388521763202548,-0.08762604180909693,-0.0444984824180603
1639426102172600600,12.3206005859375,0.13905366590321064,-0.11511844436861574,-0.033459202009439463
1639426102182590500,12.330590576171875,0.012945990812778472,-0.17339169657379389,-0.03280746010243892
1639426102192580400,12.340580322265625,0.005413257220387459,-0.16885829092785715,0.009823474878072738
1639426102202570500,12.350570556640625,0.022143442746996877,-0.13439444192051886,0.04384790955483913
1639426102212560400,12.360560302734376,0.03337853798866272,-0.13039514315128325,0.03780512225925922
1639426102222549500,12.370549560546875,0.06442658720314502,-0.12022073594368994,0.02443769116401672
1639426102232539400,12.380539306640625,0.042700493085384365,-0.07369900406971573,0.03969488152861595
1639426102242529300,12.390529296875,0.046236850517988204,-0.01683598398864269,0.04423018687069416
1639426102252519400,12.40051953125,0.0977893431007862,-0.0953799438714981,-0.0036170214533805846
