time,seconds_elapsed,z,y,x
1638746335704557600,0.0665576171875,-0.14323095158785581,0.14961948358118532,-0.8614025292422622
1638746335714579500,0.076579345703125,-0.16649083114415406,-0.12240180630981921,-0.6688721246954054
1638746335724601600,0.0866015625,-0.05130114817023277,-0.34938919173181054,-0.4652646650128066
1638746335734623700,0.096623779296875,0.154657477748394,-0.2148363443791866,-0.207981290852651
1638746335744645600,0.106645751953125,0.32828210629522797,0.14897943211197853,-0.05300093782544136
1638746335754667500,0.11666748046875,0.3913526027143001,0.4929734868019819,-0.5489401425652206
1638746335764688400,0.1266884765625,0.30357085888683794,0.420344303920865,-0.8217631772931665
1638746335774710500,0.13671044921875,0.2617953716918826,0.1753098051548004,-0.3136453128512949
1638746335784732700,0.146732666015625,0.3395353217154741,-0.04361176271140575,0.17060528072565792
1638746335794754600,0.156754638671875,0.3975254461303353,-0.05748597428500652,0.3723796797621995
1638746335804776700,0.166776611328125,0.3073845719560981,0.053047699576616286,0.34563692652620376
1638746335814798600,0.176798583984375,0.04349076668024063,0.014314941078424452,0.03148585610985756
1638746335824819500,0.1868193359375,-0.18727087658345698,-0.09295768516063689,-0.2753111252166331
1638746335834841600,0.196841552734375,-0.2933843959152698,-0.07463000130951404,-0.5643732740186155
1638746335844863700,0.20686376953125,-0.2207508291199803,0.2502694768100977,-0.6399076037567109
1638746335854885600,0.2168857421875,-0.0668392013028264,0.4939321027010679,-0.3271216111484915
1638746335864907500,0.226907470703125,-0.027093174108862875,0.44032033950090405,0.018068448393046856
1638746335874929700,0.2369296875,-0.2576195473119616,0.12364625341296195,0.20905534982495008
1638746335884950500,0.246950439453125,-0.6619289544939995,-0.3057598933637142,0.4220850101083517
1638746335894972700,0.25697265625,-1.0957564248442648,-0.4074316308557987,0.4764905540347099
1638746335904994600,0.26699462890625,-1.233980946446955,-0.026484102299809454,0.2745390448655933
1638746335915016700,0.2770166015625,-0.858022019958496,0.6893442001640796,0.05454144526571035
1638746335925038600,0.28703857421875,-0.34088030658364293,0.28232231915295125,0.2964198180884123
1638746335935060500,0.297060546875,-0.02300385896861553,-0.08475801209211349,0.36197131766825913
1638746335945082600,0.30708251953125,0.013931494718790053,-0.13510112888514994,0.2827380603469908
1638746335955103700,0.317103759765625,-0.15877981837540864,0.012272621595859528,-0.031105770751088856
1638746335965125600,0.327125732421875,-0.38987610042095183,0.3748188165426254,-0.6281142170451581
1638746335975147500,0.3371474609375,-0.3607894144073128,0.9144032478719949,-0.8945232200123369
1638746335985169700,0.347169677734375,-0.26341771219670773,0.972287281563878,-0.6565759030282498
1638746335995191600,0.357191650390625,-0.08606734112501144,0.35128012004494663,-0.19124401799812912
1638746336005213400,0.36721337890625,0.09004325901865959,-0.6833557734042406,0.5336671701095997
1638746336015234600,0.377234619140625,0.39563276425153016,-1.342494804918766,0.8159785294771194
1638746336025256700,0.387256591796875,0.46864247088283295,-1.2978192123681307,0.8478240126796066
1638746336035278600,0.397278564453125,0.3599196458354592,-0.9075807083755731,0.863023043116182
1638746336045300500,0.407300537109375,0.1452472598463297,-0.18064239835441112,0.2672363937020302
1638746336055322600,0.417322509765625,-0.0354880774885416,0.7740566195487976,-0.3492348779529333
1638746336065344500,0.427344482421875,-0.3128922294616699,1.5414648871243,-0.8504834411472082
1638746336075365600,0.43736572265625,-0.4377671478867531,1.578248265120387,-0.8860133119508623
1638746336085387500,0.447387451171875,-0.30353286496400833,0.9825146610677241,-0.48778585503101346
1638746336095409700,0.45740966796875,0.14252631044983863,-0.08280863159000873,0.23474296798482536
1638746336105431600,0.467431640625,0.5390133534431457,-0.9235814105838537,0.6793775174230336
1638746336115453400,0.477453369140625,1.613308472585678,-1.4302613511770963,0.10892769996970891
1638746336125475600,0.4874755859375,1.5514584578722714,-1.6035627391189335,0.05542334266677498
1638746336135496700,0.49749658203125,0.9099392542004585,-0.3946826239198446,-0.32787323323339224
1638746336145518600,0.5075185546875,0.9453399456664919,0.46042730798423287,-0.46622678804323076
1638746336155540500,0.51754052734375,1.0752768236562609,0.15660335111916066,-0.6960387293666601
1638746336165562600,0.527562744140625,0.4995265617072582,-0.229599029225111,-1.1979600772559642
1638746336175584500,0.53758447265625,-0.21266192294955252,-0.6648463032454252,-1.1430825319036841
1638746336185606400,0.5476064453125,-0.4892874917656183,-1.216222879177332,-1.5472808799266815
1638746336195627800,0.557627685546875,-0.4256786506861448,-1.7669693405121565,-3.821462660473585
1638746336205649700,0.567649658203125,-1.163691312429309,-1.5032698887646196,-4.638318849568068
1638746336215671600,0.577671630859375,-1.3400073720172048,-1.234868542936444,-5.033494517701864
1638746336225693400,0.587693359375,-0.6204436824172734,-1.5387240639835595,-5.199421577483415
1638746336235715600,0.597715576171875,0.7535925081908702,-1.8186621183484792,-4.770080604897439
1638746336245737500,0.607737548828125,2.123113267201185,-1.647350442919135,-4.292314916360378
1638746336255759400,0.61775927734375,1.5759250828698277,-1.042607602980733,-5.187561043819785
1638746336265780700,0.62778076171875,1.4168626481607556,-0.6065794077157974,-4.98747335576117
1638746336275802600,0.637802734375,1.4203057743519545,-0.05640110165774822,-4.66217815632224
1638746336285824500,0.647824462890625,1.1164297950387,0.7043050379306077,-4.353616065019369
1638746336295846700,0.6578466796875,0.639385698774457,1.187096737936139,-3.94878643335551
1638746336305868500,0.66786865234375,0.27086218298375603,1.2145540691822767,-3.5606758813023567
1638746336315890400,0.677890380859375,0.5166477923780679,1.2841431537151335,-3.4525124437034127
1638746336325911600,0.68791162109375,1.0564321301937103,0.9667606270968914,-3.394357191854715
1638746336335933700,0.69793359375,1.122728018400073,0.8383283084511757,-3.931313028246164
1638746336345955600,0.70795556640625,0.5248632475376129,1.3131705107569693,-4.753483982622623
1638746336355977500,0.7179775390625,0.1839677433848381,1.5494757596224547,-4.65723602374494
1638746336365999600,0.72799951171875,0.7755565027177334,1.3319511990725994,-3.879178644122183
1638746336376021500,0.738021484375,1.2182318809121846,1.5293500864386558,-3.486281442314386
1638746336386042600,0.748042724609375,1.545666430467367,2.204841117817163,-2.773858564379811
1638746336396064500,0.758064453125,1.849119800454378,3.0063556531339883,-1.5819870132572948
1638746336406086700,0.768086669921875,2.438239539325237,3.5141865173280236,-0.5501908732786774
1638746336416108500,0.778108642578125,2.841051109164953,3.310883374354243,-0.4109598049819469
1638746336426130400,0.78813037109375,2.6398142510712144,2.7317110290020703,-1.6745533610127865
1638746336436152600,0.798152587890625,2.305093636161089,2.231298916631937,-3.0496453442841767
1638746336446173700,0.808173583984375,1.7690578372240064,2.1418594687253236,-3.219769855755567
1638746336456195600,0.818195556640625,1.1641846489042043,2.442629883238673,-2.3986725219599903
1638746336466217500,0.828217529296875,0.7046598427176475,2.9484727884858843,-0.767589030969888
1638746336476239600,0.838239501953125,0.168704707801342,3.3141689718961715,1.0103697594597936
1638746336486261500,0.848261474609375,-0.17507307378947734,3.0264316419571635,0.5038008780255914
1638746336496283400,0.858283447265625,-0.059842766544222825,2.3063585415303707,-1.8259052213445304
1638746336506304300,0.86830419921875,0.28960253928899765,1.8505682456970214,-3.501572827209532
1638746336516326400,0.878326416015625,0.5464549016207456,1.895047438892722,-3.8531054607108235
1638746336526348300,0.888348388671875,0.8027268337160348,2.269259521713853,-3.4834833360284563
1638746336536370200,0.8983701171875,1.2489029135078191,2.7845535613954064,-2.8249907857239243
1638746336546392300,0.908392333984375,1.6457126125842332,3.2773370785832405,-1.806001081956923
1638746336556414500,0.91841455078125,1.98813371886909,3.7177901045531034,-0.589405277813971
1638746336566435300,0.928435302734375,2.4658915163606405,3.9838375807315107,0.25106165010109543
1638746336576457200,0.938457275390625,2.723967867529392,4.141867749783397,0.42668906983770427
1638746336586479400,0.948479248046875,2.8067250611931085,4.159185964331031,0.44135698907226323
1638746336596501200,0.958501220703125,2.5185516779243944,3.9835786375343796,0.8400598084188997
1638746336606523400,0.9685234375,2.2734750935822725,3.972080507442355,1.3217702890589833
1638746336616545500,0.978545654296875,1.9372177706241607,4.200206249244511,1.4396364977657794
1638746336626566400,0.98856640625,1.2569359978377819,4.386383777633309,1.861018912562728
1638746336636588300,0.99858837890625,-0.26759587466418744,4.327893010219931,1.8057846627272665
1638746336646610200,1.008610107421875,-2.3567507581621405,4.240907677467167,2.9295988689288497
1638746336656632300,1.01863232421875,-2.3955922377318144,3.602932430012524,4.737086974573135
1638746336666654500,1.028654541015625,-2.2670611348867413,2.3114874288514256,4.622685811628401
1638746336676676400,1.03867626953125,-2.253566278019547,1.4280726089611648,4.665785825425386
1638746336686697200,1.048697265625,-2.5032512329399585,1.2340624872505663,4.835608139079809
1638746336696719400,1.05871923828125,-3.034735944443941,1.1089140125811099,4.4940515406697985
1638746336706741200,1.0687412109375,-3.3319857836157083,0.7630608860209583,4.293386052723228
1638746336716763100,1.07876318359375,-3.6644875534325836,0.6707374071106315,4.956966573816538
1638746336726785500,1.08878564453125,-3.7313241243869064,0.6715868635468184,6.115843179440498
1638746336736807400,1.098807373046875,-3.2790222551912067,0.7330391111142933,6.49512598965466
1638746336746829300,1.108829345703125,-2.683158302757144,0.8417895548209547,6.120996908941865
1638746336756850200,1.11885009765625,-2.213140744128823,0.7574325247451662,5.569179603505134
1638746336766872300,1.128872314453125,-2.1477730766832828,0.563726792808622,5.028968564710021
1638746336776894200,1.138894287109375,-2.4667367350131273,0.5099216989934444,4.49116780192703
1638746336786916400,1.148916259765625,-2.5533307303607464,0.4300134650200605,4.366160489293932
1638746336796938500,1.1589384765625,-2.4620810181617734,0.3806517604798078,4.224664398674666
1638746336806959400,1.16895947265625,-2.069543005055189,0.33275179905518887,3.7679298077285286
1638746336816981200,1.178981201171875,-1.5563912380993365,0.512182921923697,3.2998136988073585
1638746336827003100,1.189003173828125,-1.1190022758752107,0.7418336813360452,3.259312177070975
1638746336837025300,1.199025390625,-1.0118716884553431,0.6606763971496373,3.4008716883152723
1638746336847047400,1.20904736328125,-1.3688877218037843,0.43217809570804233,3.4718750235602256
1638746336857069300,1.2190693359375,-1.807101444414258,0.1811215601734817,3.5247646099656817
1638746336867090200,1.229090087890625,-2.071681770649552,0.015917700099945066,2.986761894869804
1638746336877112300,1.2391123046875,-2.0310411327034235,0.008904095010831952,2.176007675912231
1638746336887134200,1.24913427734375,-1.8397966763138769,-0.02547419460490346,1.607256625200808
1638746336897156400,1.25915625,-1.758584958526492,-0.09711246675252914,1.2175224174685775
1638746336907178500,1.269178466796875,-1.7117647551625965,-0.11154343542605638,1.1665868146751075
1638746336917200400,1.279200439453125,-1.6671727492421864,-0.037087913900613785,0.986099533817172
1638746336927221200,1.28922119140625,-1.4174872097998856,0.0469024748198688,0.5581780726402997
1638746336937243100,1.2992431640625,-1.1808505370229483,0.0521924709867686,0.15150867659496142
1638746336947265300,1.309265380859375,-1.2060533673405647,0.10236395753994583,-0.21289520198246462
1638746336957287400,1.319287353515625,-1.2550012303829192,0.23393420888520775,-0.34536307802088556
1638746336967309300,1.329309326171875,-1.0224147097796201,0.3264331904929131,-0.16284005355164408
1638746336977331500,1.33933154296875,-0.6483481729090214,0.4993315505918115,0.25699730549408123
1638746336987352300,1.349352294921875,-0.339777898299694,0.6209853880785405,0.5484896953839808
1638746336997374200,1.359374267578125,0.06327040290534496,0.5599257930904626,0.49847383778393267
1638746337007396000,1.36939599609375,0.5740244610697031,0.3565446164444089,0.2027582224421203
1638746337017418500,1.37941845703125,0.7935802351862191,0.2342564996421337,-0.3105208606878295
1638746337027440400,1.3894404296875,0.7473223418802023,0.22029395219795406,-0.690022245556116
1638746337037462300,1.399462158203125,0.5530284347921609,0.23052768837735055,-0.7870905809059738
1638746337047483400,1.4094833984375,0.27934301108121873,0.19521387147717176,-0.772158238581568
1638746337057505300,1.41950537109375,0.000025134441256523132,0.09217376824133097,-0.638387919908762
1638746337067527200,1.429527099609375,-0.1473281577736139,-0.0267821353983134,-0.6615557372674346
1638746337077549300,1.43954931640625,-0.37468963720500464,-0.22684951132126152,-0.7687656735338271
1638746337087571500,1.449571533203125,-0.5693237360328436,-0.28916612063311037,-0.5629768512241542
1638746337097593300,1.45959326171875,-0.834778507015109,-0.13429887259155512,-0.24324911318663506
1638746337107614200,1.4696142578125,-0.8186281672030686,0.030842151378840207,-0.15760401606168598
1638746337117636400,1.47963623046875,-0.6372814199715853,0.11904869648963212,-0.22973825503271073
1638746337127658200,1.489658203125,-0.49773850924670693,0.13614011654406785,-0.1601708708750084
1638746337137680400,1.499680419921875,-0.38737902290821075,0.23359679362438618,-0.39340811047200114
1638746337147702300,1.509702392578125,-0.4153039716660976,0.2463729077629745,-0.34447599298805
1638746337157724400,1.519724365234375,-0.20071897169947622,0.14654913622513413,-0.10649981523565948
1638746337167745300,1.529745361328125,-0.22501345500051975,-0.026336145196482537,-0.1419090553343296
1638746337177767200,1.53976708984375,-0.4621300202488899,-0.02368921088427305,-0.035138460333272815
1638746337187789600,1.54978955078125,-0.7182891396194696,0.23009704187512398,-0.13669300118647515
1638746337197811500,1.5598115234375,-0.8816431340426206,0.2961445813436061,-0.16605594685822725
1638746337207833300,1.569833251953125,-0.5545978760659694,0.025926176156103608,-0.03977474183179438
1638746337217855200,1.579855224609375,-0.15460603982210158,-0.2922663516707718,0.1780626475268975
1638746337227876400,1.58987646484375,0.131247960588336,-0.2858803038954735,0.2829152070121839
1638746337237898200,1.599898193359375,0.2818932800859213,0.016043445371463894,-0.05589114284161478
1638746337247920400,1.60992041015625,0.17181436425447463,0.10072386218272149,-0.3434572809321806
1638746337257942500,1.619942626953125,0.18273790932893752,0.10150244533978402,-0.27966530183814464
1638746337267964400,1.62996435546875,0.34945348913967605,0.1762448209825903,0.24002624214999377
1638746337277986300,1.639986328125,0.5126221901237964,0.14104578956849873,0.6355569342665374
1638746337288007200,1.650007080078125,0.5603805511206388,-0.11468998982347547,0.434246645610407
1638746337298029300,1.660029296875,0.4999152687638998,-0.31006475095078345,0.13839954937603324
1638746337308051500,1.670051513671875,0.6640215428590774,-0.24989114501699805,0.09244637463763355
1638746337318073300,1.6800732421875,0.688140669593215,0.024891426280885934,0.08119213630408048
1638746337328095500,1.690095458984375,0.7926257109403609,0.20605214942097663,-0.3264490456491709
1638746337338117400,1.700117431640625,0.8756336644947529,0.47511079011410473,-0.29581542245447634
1638746337348138200,1.71013818359375,0.05110767142474651,0.7183304945431649,0.1300605774346739
1638746337358160400,1.720160400390625,-0.37318800047039985,0.31462540992982685,-0.02558795717768371
1638746337368182500,1.7301826171875,-0.35355449471771716,-0.25219664548039433,-0.41890057138595727
1638746337378204400,1.740204345703125,-0.3815694598466158,-0.228742996917665,-0.4459506735380739
1638746337388226300,1.750226318359375,-0.35869127308428284,0.02599368843436241,0.05663505654409527
1638746337398248400,1.76024853515625,0.029706571477651593,0.0955932943612337,0.3425959513951093
1638746337408269300,1.770269287109375,0.4072311398476362,-0.0625976182103157,0.28970932413171974
1638746337418291500,1.78029150390625,0.5522901836454868,-0.16601196158602832,0.3981349197981879
1638746337428313300,1.790313232421875,0.21252046865224836,-0.2647146201394498,0.3643677112855017
1638746337438335500,1.80033544921875,-0.07129530392885208,-0.008328267884254455,0.12845675896722822
1638746337448357400,1.810357421875,0.16273849287331105,0.18870105551704763,0.14603775263689459
1638746337458379300,1.820379150390625,0.2983066547483206,0.24159824070706962,-0.04043057539202272
1638746337468400000,1.830400146484375,0.25338965465724467,0.19758739567548037,-0.23407317896448074
1638746337478422500,1.840422607421875,-0.11789455801844596,-0.026022622267901897,-0.07247128890566527
1638746337488444400,1.8504443359375,-0.37537411233782764,-0.3017693624228239,-0.012717077427729963
1638746337498466600,1.860466552734375,-0.2003542300403118,-0.3457182481341064,-0.022828922526817768
1638746337508488700,1.87048876953125,-0.22084406036138532,-0.21296514367982744,0.057486485741659994
1638746337518510600,1.880510498046875,-0.13070318618714807,-0.10489186858236789,0.15501947946120054
1638746337528531500,1.890531494140625,0.06374737276732921,0.14296324056237936,0.0265904122184962
1638746337538553600,1.9005537109375,0.0661053340703249,0.29346374476179476,-0.03215290518384427
1638746337548575700,1.91057568359375,0.06669160952568054,0.1617708168849349,-0.09094996206741779
1638746337558597600,1.92059765625,0.23720424353182315,-0.0195789260212332,0.12052430373383685
1638746337568619500,1.93061962890625,0.4250409373044967,-0.0013164894260466098,0.04147462281854823
1638746337578641700,1.9406416015625,0.4658212759822607,0.040336175106838346,0.036292178679350764
1638746337588662500,1.95066259765625,0.04249649494588375,0.06613733664378524,0.09183715669810771
1638746337598684700,1.9606845703125,-0.1695581097602844,-0.09300853856503963,0.11075181012433022
1638746337608706600,1.97070654296875,-0.04422375712990761,-0.252384715398401,0.17495669913450254
1638746337618728700,1.980728759765625,-0.007873509854078293,-0.200687699778378,0.11895782160209491
1638746337628750600,1.99075048828125,0.17452713034451006,-0.13425992882065474,0.0631484935587272
1638746337638772500,2.0007724609375,0.00720481681227684,-0.1036443527393043,-0.06859600010858849
1638746337648793600,2.010793701171875,-0.06838847657144069,0.18900814870484173,-0.17609585923226548
1638746337658815700,2.020815673828125,0.10182605127096175,0.512546859865263,-0.1696431211626157
1638746337668837600,2.030837646484375,-0.010424947902560234,0.5034265648204833,-0.1968597207217477
1638746337678859500,2.040859619140625,0.05611293236613273,0.3743017338659614,0.013471201996970921
1638746337688881700,2.050881591796875,-0.2347276242852211,-0.06631210868880152,-0.18217700577685608
1638746337698902500,2.060902587890625,-0.2074567555218935,-0.3212814337529242,-0.09565181961543857
1638746337708924400,2.07092431640625,0.1390595111221075,-0.22551095619387923,0.18217238440066574
1638746337718946800,2.08094677734375,0.14630290637910365,-0.16698226792290805,0.09520316253248602
1638746337728968700,2.09096875,0.292332256513834,-0.1408728441543877,0.033007074327766894
1638746337738990600,2.100990478515625,0.37046822011768815,-0.006939078548178076,-0.035890338146500285
1638746337749012500,2.111012451171875,0.5473667557686567,0.3397678883623332,-0.07186630874983965
1638746337759033600,2.12103369140625,0.98656948941648,0.6444160210918635,-0.31229378864448515
1638746337769055500,2.131055419921875,0.812903944337368,0.23919921674132347,-0.6979308997888117
1638746337779077600,2.14107763671875,-0.2462204936802387,-0.6750014942958951,-0.5204188353493809
1638746337789099800,2.151099853515625,-1.1343681873112916,-0.6720848031315952,0.13930143011920154
1638746337799121700,2.16112158203125,-1.2731740159332752,-0.11239048070944845,0.5929918310638517
1638746337809143600,2.1711435546875,-1.1478110217303037,-0.018157368785515427,0.2627580792441964
1638746337819164400,2.181164306640625,-0.6232131471306085,0.07479483648240566,-0.08895590217337011
1638746337829186600,2.1911865234375,-0.12281447876393795,0.17660576324947178,-0.05440817427486181
1638746337839208700,2.201208740234375,-0.13984277045428753,0.08841142003312706,-0.03285831350684166
1638746337849230600,2.211230712890625,-0.3091208942294121,0.04373736185245215,-0.040622298571839924
1638746337859252700,2.221252685546875,-0.44462066704332825,0.037572774808108805,0.035027766500413414
1638746337869274600,2.231274658203125,-0.5098790288954973,0.13172741466835142,-0.013299918816983699
1638746337879295500,2.24129541015625,-0.5234668247431516,0.29065453255996104,-0.12810396347418426
1638746337889317600,2.251317626953125,-0.23043664909303188,0.15356675990223884,-0.22601452180184423
1638746337899339800,2.26133984375,0.20245558623373508,-0.033872751246392725,0.04201872136630118
1638746337909361700,2.271361572265625,0.4378524880826473,0.1243209378041327,0.2943042141739279
1638746337919383600,2.281383544921875,0.7737006457179785,-0.07461385389231145,0.2586961635675281
1638746337929405700,2.29140576171875,1.3407389011621473,-0.19759893998280167,-0.04949636377058923
1638746337939426600,2.301426513671875,0.946307621654868,0.08797397846393287,-0.24475714312940836
1638746337949448700,2.31144873046875,0.20561434252560137,0.01562580448128283,0.01877652359716594
1638746337959470600,2.321470703125,-0.17393033349514006,0.08914338756948709,0.12310644744783639
1638746337969492700,2.33149267578125,-0.15391805755794047,0.1022118357181549,0.018265505335107443
1638746337979514600,2.3415146484375,0.0343248789280653,-0.0032714228861033916,-0.03678498543128371
1638746337989536500,2.35153662109375,0.15454583406746386,-0.028826792968437074,-0.012112170337140559
1638746337999557400,2.361557373046875,0.15238193403184414,0.018373203493282197,0.014315963991731405
1638746338009579800,2.371579833984375,0.11085866803228854,0.04230097237378359,0.007240691843256354
1638746338019601700,2.3816015625,0.09605155952274799,0.03897540814764797,0.006960267466679215
1638746338029623600,2.39162353515625,0.09649170450568198,0.007548296487703919,0.011204407842457294
1638746338039645700,2.401645751953125,0.08503858259916305,0.0002549976743757725,0.013491349735856055
1638746338049666600,2.41166650390625,0.06620645635724068,0.006944046984240412,0.004846563248336315
1638746338059688400,2.4216884765625,0.07151040798425674,0.03820267020948231,0.012586071459203959
1638746338069710600,2.431710693359375,0.07403437350392342,0.045039384361729023,0.009778905083984137
1638746338079732700,2.441732666015625,0.1027647934257984,0.049937239405885334,0.001958075265213847
1638746338089754600,2.451754638671875,0.11130115110278128,0.032006665113568304,-0.0030220512349158524
1638746338099776500,2.461776611328125,0.0906704510062933,0.033062896168231964,-0.0014567746795713901
1638746338109797400,2.47179736328125,0.08137421487271786,0.022445129107311366,0.0020898849513381716
1638746338119819500,2.481819580078125,0.0795510910987854,0.026868863833695647,0.0038220425061881538
1638746338129841700,2.491841552734375,0.08282499820291996,0.028904095988348123,0.015379866896197199
1638746338139863600,2.501863525390625,0.09855097512304782,0.023207199520990252,0.010739347613975405
1638746338149885700,2.5118857421875,0.11429448769986629,0.013475567644834518,0.007339256846904754
1638746338159907600,2.521907470703125,0.10253332275748252,0.021361790850013492,0.006604805092513561
1638746338169928400,2.531928466796875,0.0911976897507906,0.01160984683819115,0.008031623025238514
1638746338179950600,2.54195068359375,0.08330547519624233,0.04663315635919571,0.011003843769058585
1638746338189972700,2.55197265625,0.07824760728478432,0.05454970163740217,0.012065627781674266
1638746338199994600,2.56199462890625,0.0964081178754568,0.04794774608910084,0.0056070262268185615
1638746338210016500,2.5720166015625,0.09959960739314555,0.03216602039374411,-0.006200315944850444
1638746338220038700,2.58203857421875,0.10365969643890857,0.03559833292998373,0.00029905601181089874
1638746338230059500,2.5920595703125,0.09156243140995501,0.018798150907084345,-0.014900851207599044
1638746338240081700,2.60208154296875,0.08396832301914692,0.019868775813281534,-0.017763912488520144
1638746338250103600,2.612103515625,0.08234452120959758,0.026480156777054068,-0.01106112691424787
1638746338260125700,2.622125732421875,0.10052198293507099,0.027503873801603913,0.004658274134621024
1638746338270147600,2.632147705078125,0.11238836181759834,0.013284575117379425,-0.012059636432304977
1638746338280169500,2.64216943359375,0.10974340026676654,0.018765709942206738,-0.004844005965068936
1638746338290190600,2.652190673828125,0.09272329188287258,0.016438582168892026,-0.008095993498340249
1638746338300212700,2.662212646484375,0.06853460704386234,0.025743293869867918,-0.01063851758800447
1638746338310234600,2.672234619140625,0.07347790866494178,0.023615853387117386,-0.01794109568633139
1638746338320256500,2.682256591796875,0.1013362219274044,0.024278993470966813,-0.0066720251098275184
1638746338330278700,2.692278564453125,0.09911036257147789,0.004758665769174695,-0.007583148605376481
1638746338340300500,2.702300537109375,0.11185118620097637,0.0017413637746125459,-0.004980784087255597
1638746338350321400,2.7123212890625,0.09208908563256263,-0.0010755933422595262,-0.0029708325043320653
1638746338360343800,2.72234375,0.08369301320910454,0.013416019477322697,-0.011246420353278518
1638746338370365700,2.73236572265625,0.08769640363156794,0.03486483102366328,-0.021628552027419208
1638746338380387600,2.7423876953125,0.10265957948565482,0.03180471280068159,0.007030117832496762
1638746338390409500,2.752409423828125,0.1120978544384241,0.014252104975283146,0.0006740268040448426
1638746338400430600,2.7624306640625,0.10744798280596732,0.014591273801773786,0.005375263297557831
1638746338410452500,2.772452392578125,0.08810439991056919,0.014156389515846968,-0.002681201907992363
1638746338420474600,2.782474609375,0.07849719813168049,0.02906447418183088,0.009199351630359887
1638746338430496800,2.792496826171875,0.08266133207380771,0.030914778223633765,-0.02694441328793764
1638746338440518700,2.8025185546875,0.09895838688015937,0.03664038932882249,-0.015527020281925796
1638746338450540500,2.81254052734375,0.10912146897614002,0.02855404044166207,0.0120145551815629
1638746338460561400,2.8225615234375,0.11445873835086821,0.02583031456619501,0.022368118348345158
1638746338470583600,2.83258349609375,0.11022270821630954,0.02858421638421714,0.02745747737661004
1638746338480605700,2.842605712890625,0.07157996608912945,0.018225903977081178,0.03047309887073934
1638746338490627300,2.85262744140625,0.04611585448682308,0.022889146547764538,0.039194019334390755
1638746338500649200,2.862649169921875,0.06461071159839629,0.02189144074730575,0.03784421216063201
1638746338510671000,2.872671142578125,0.09808043500185012,0.012168211373314261,0.03597016191706061
1638746338520692200,2.882692138671875,0.1139934589266777,0.010092135751619935,0.036719811240583655
1638746338530714400,2.89271435546875,0.10971358965039253,0.015148688488826155,0.02433196576721966
1638746338540736300,2.902736328125,0.08945581451952457,0.021570319034159183,0.013530512702465056
1638746338550758400,2.91275830078125,0.08314005550146103,0.020109379636123775,-0.0021881576940417286
1638746338560780300,2.9227802734375,0.08984510609805584,0.025063421846926212,-0.007275178634747862
1638746338570802200,2.93280224609375,0.12323182739317416,0.03226677735447883,-0.03624422961808741
1638746338580823300,2.9428232421875,0.13135083644092083,0.033622575877606864,-0.06903685747757554
1638746338590845400,2.952845458984375,0.080801383420825,0.018103154380246997,-0.09233268513008952
1638746338600867300,2.962867431640625,0.058228317084908485,0.016012611841782928,-0.10047178711779416
1638746338610889200,2.97288916015625,0.054824061599373815,0.03647511576451361,-0.07511420462988316
1638746338620911400,2.982911376953125,0.06470891127586365,0.038529856337234374,-0.03780044608414173
1638746338630932200,2.99293212890625,0.09212006529271602,0.025086072070151566,0.0008256371691823005
1638746338640954400,3.002954345703125,0.1159410858631134,0.007023249700292945,0.05370828237719834
1638746338650976300,3.012976318359375,0.12215279998481272,0.008366554068028926,0.07383658590950071
1638746338660998400,3.022998291015625,0.11416823097169398,-0.004760930791497231,0.06145253982841968
1638746338671020300,3.033020263671875,0.09242109406590461,0.003739771050214767,0.044858547902107235
1638746338681042200,3.043042236328125,0.09744213709831237,0.01763239506334066,0.03541457386091351
1638746338691063000,3.05306298828125,0.10454115544855594,0.027602000413835048,0.027704803201183674
1638746338701085400,3.06308544921875,0.11473229459524154,0.009648629767820239,0.03311440715976059
1638746338711107300,3.073107421875,0.11947276712059975,0.006931698959320783,0.07432268892601132
1638746338721129200,3.083129150390625,0.11446925974488258,0.0027705606918781993,0.10296301941163838
1638746338731151400,3.0931513671875,0.1221060382336378,0.017155206005647777,0.0925769422147423
1638746338741173200,3.10317333984375,0.11215163045227527,0.027489772211015222,0.006890782427042722
1638746338751194000,3.113194091796875,0.09932546662688255,0.018503405744209885,-0.08137311889417469
1638746338761216300,3.12321630859375,0.08930442335009574,-0.014021657220274208,-0.15169314805008471
1638746338771238400,3.13323828125,0.07284194884896278,-0.011061053849011659,-0.1602742216516286
1638746338781260300,3.14326025390625,0.05140636211037636,0.010541560019552707,-0.12755078657083213
1638746338791282200,3.1532822265625,0.0508726936250925,0.01976560769975185,-0.09755494982302189
1638746338801304300,3.16330419921875,0.07662205190956592,0.03545695169791579,-0.05389854425229132
1638746338811325200,3.1733251953125,0.12678747404813764,0.05889379525631666,-0.00042231706529855727
1638746338821347300,3.183347412109375,0.15165478880107403,0.06220613467469811,0.056469198457896705
1638746338831369200,3.193369140625,0.12831307618021964,0.06945756710767746,0.10055880781412124
1638746338841391400,3.203391357421875,0.0639922874391079,0.0416739265166223,0.1151107725188136
1638746338851413200,3.213413330078125,0.020945757395029067,0.01824636224322021,0.12248429696150123
1638746338861435100,3.22343505859375,0.04344458945095539,0.034840427234768864,0.114404597010836
1638746338871456300,3.233456298828125,0.07173778699934483,0.0713785252328962,0.08195581415295601
1638746338881478400,3.243478515625,0.08335106790363789,0.05725253085531294,0.00704056616127491
1638746338891500300,3.253500244140625,0.09100772013664245,0.08727737450189887,-0.03733662796467543
1638746338901522200,3.263522216796875,0.09140753310918807,0.11094291224963962,-0.09085172585733234
1638746338911544300,3.27354443359375,0.04593523722290992,0.0879883723154664,-0.14941307428888975
1638746338921565200,3.283565185546875,0.007377835291624069,0.0558433216445148,-0.1647412840630859
1638746338931587300,3.29358740234375,0.023535773888230322,0.0499086708985269,-0.15591946050822733
1638746338941609200,3.303609130859375,0.03773673319816589,0.022823022508993745,-0.11973609423190354
1638746338951631400,3.31363134765625,0.06725508862733841,-0.012068038934469222,-0.05528042706474662
1638746338961653200,3.3236533203125,0.11870119822621344,-0.03195829592719674,0.0038227000933140514
1638746338971675100,3.333675048828125,0.12806757698655127,-0.041436172237992286,0.06924092868231237
1638746338981696300,3.3436962890625,0.12199205646514892,-0.018538184796646238,0.08335669392682611
1638746338991718400,3.353718505859375,0.12270517317056655,-0.013884367641434072,0.07759009322412312
1638746339001740300,3.363740234375,0.12730185331106186,-0.02315115848481655,0.03867028772123158
1638746339011762200,3.37376220703125,0.11960662263333796,-0.021691022804379463,-0.00801182234622538
1638746339021784300,3.383784423828125,0.11273381425440311,-0.018200842601060866,-0.018021540511399505
1638746339031806200,3.39380615234375,0.09902619141936302,-0.012702756641432642,-0.013509981371089816
1638746339041827300,3.403827392578125,0.08194587728083133,0.0028434797976166007,-0.014799728920683264
1638746339051849500,3.413849365234375,0.08485387368202209,0.032868834900856014,-0.022638240526616574
1638746339061871400,3.423871337890625,0.07728022355735302,0.02910889784544706,-0.011971446692198514
1638746339071893200,3.433893310546875,0.09191314454376696,0.011726532020419836,0.009534940260276199
1638746339081915100,3.4439150390625,0.0889320829063654,0.007934446261078119,0.013524375222623347
1638746339091936300,3.453936279296875,0.08674889364838599,0.018342662224546075,0.01204918810352683
1638746339101958400,3.46395849609375,0.0969967314183712,0.04367810594588518,-0.011182488271594047
1638746339111980300,3.473980224609375,0.10382453161180019,0.077172087007761,-0.011359013882279395
1638746339122002400,3.48400244140625,0.10495148981511593,0.0832357709608972,-0.013238105627149343
1638746339132024300,3.4940244140625,0.0927963571190834,0.06577551759406924,-0.003980886329710483
1638746339142046200,3.504046142578125,0.0749631787866354,0.07569543858394026,0.007298705640807747
1638746339152067000,3.514067138671875,0.061847676625847815,0.042706703630462285,0.00005406827479600906
1638746339162089500,3.52408935546875,0.07686813562512397,0.03454538981094956,0.0003127192109823227
1638746339172111400,3.534111328125,0.09924012643098831,0.019052783255279062,0.00004091653227806091
1638746339182133200,3.54413330078125,0.13079320255815982,0.007337211020290851,0.0029210020132362843
1638746339192155400,3.5541552734375,0.12901859410107136,-0.0026042642142623663,0.004890840781480074
1638746339202177300,3.56417724609375,0.12068798812925814,0.005540975253283977,0.012975363037735223
1638746339212198100,3.5741982421875,0.08929507099986075,0.018948738358914852,0.012806290081143378
1638746339222220300,3.58422021484375,0.07690086885094642,0.015892565658688546,-0.006275865399092436
1638746339232242400,3.594242431640625,0.08349544481039047,0.017654606895148754,-0.009484890573471783
1638746339242264300,3.604264404296875,0.09833236393630504,0.010452201235666871,-0.005073284676298499
1638746339252286200,3.6142861328125,0.10761983224153518,-0.009469254612922667,-0.015604761693254112
1638746339262307000,3.62430712890625,0.10971242060661315,-0.0317291633464396,0.001757072800397873
1638746339272329200,3.6343291015625,0.10163140548169612,-0.05904182542487978,0.005103095292672515
1638746339282351400,3.644351318359375,0.09088730862736702,-0.057484659110754725,0.01281703067086637
1638746339292373200,3.654373291015625,0.11297171466350554,-0.062339040339365596,0.0032166239589452744
1638746339302395400,3.6643955078125,0.12340192326307296,-0.06015490123331546,0.008481120358407496
1638746339312417300,3.674417236328125,0.11320376985371113,-0.08309460892453789,0.015489391685277222
1638746339322438100,3.684438232421875,0.10103343958854674,-0.07867723087370396,0.0329584859456867
1638746339332460300,3.694460205078125,0.08960136047005653,-0.05889291847348213,0.03829677823372185
1638746339342482400,3.704482421875,0.07647416787147522,-0.033919659128040076,0.013432459155470132
1638746339352504300,3.71450439453125,0.09266659325957298,-0.01042465564161539,-0.010470248349010943
1638746339362526200,3.724526123046875,0.1064426051557064,0.034280236068740484,-0.03000526216328144
1638746339372548400,3.73454833984375,0.09505085804760456,0.039779929463565344,-0.043567046786844726
1638746339382569200,3.7445693359375,0.07657879728972912,0.03116130033060908,-0.03285743672400713
1638746339392591400,3.75459130859375,0.07127016948759556,0.01971110103353858,-0.03699585170298814
1638746339402613200,3.76461328125,0.07163549566864967,0.007040931487455964,-0.04099573499411344
1638746339412635400,3.774635498046875,0.04880816231071949,0.0036962972346693277,-0.04598272962644696
1638746339422657300,3.7846572265625,0.05651859055757522,0.010767843056097626,-0.06271824891529977
1638746339432679200,3.79467919921875,0.07159750174582004,0.018055735041946172,-0.058051353082805866
1638746339442700000,3.804699951171875,0.09151216252744197,0.03436776822172105,-0.05566431181579828
1638746339452722400,3.814722412109375,0.08362170153856277,0.03320332755222916,-0.037239743461459876
1638746339462744300,3.824744384765625,0.07960837424397468,0.0432029627148062,-0.010493702289834619
1638746339472766200,3.83476611328125,0.08443301792144775,0.05223426430188119,0.026614742942154407
1638746339482788400,3.844788330078125,0.08609481365382671,0.052592137828841805,0.046894802970066665
1638746339492809700,3.854809814453125,0.10590426049530506,0.03855594062656164,0.052483416757360096
1638746339502831600,3.86483154296875,0.11961948211491107,0.030923911378160116,0.026915479454398154
1638746339512853500,3.874853515625,0.11524082863926886,0.014998466363176702,0.0020198153898119925
1638746339522876000,3.8848759765625,0.10411913064420222,0.01165865441597998,0.0005261427659541368
1638746339532897800,3.894897705078125,0.0849316150933504,0.016382102741301058,-0.008751607862859964
1638746339542919700,3.904919677734375,0.08291384553015231,0.02499167178496718,0.007731471034884452
1638746339552940500,3.9149404296875,0.10213877048194407,0.023214798305556176,0.021992563034221528
1638746339562962700,3.924962646484375,0.12184183433949947,0.016557605438679457,0.025852818658947944
1638746339572984600,3.934984619140625,0.10922492935061454,0.015199030436575412,0.018878084275498985
1638746339583006700,3.9450068359375,0.08898176726698875,0.031005963638424873,0.009670330142974854
1638746339593028900,3.95502880859375,0.08532207571566104,0.054022755153849716,-0.001740925383195281
1638746339603050800,3.96505078125,0.09364274481534958,0.06386931864656507,-0.02052979700528085
1638746339613071600,3.975071533203125,0.09654080434441566,0.07957673699669539,-0.017238792635872958
1638746339623093500,3.985093505859375,0.08249298976957797,0.09179850518815219,-0.007056421317532658
1638746339633115600,3.99511572265625,0.07094751340448856,0.09931962140798568,-0.0120564215619117
1638746339643137800,4.0051376953125,0.0714993020683527,0.0632679186873138,-0.0008772212259471416
1638746339653159700,4.01515966796875,0.09064005586802959,0.023582900965586302,0.006885740925744175
1638746339663180500,4.0251806640625,0.12408055317699908,0.010941080731153487,0.02301978719010949
1638746339673202700,4.03520263671875,0.1369593239724636,-0.010303805740922689,-0.00829582691937685
1638746339683224600,4.045224609375,0.1305465343207121,-0.05030329623930156,-0.07544255980141461
1638746339693246700,4.055246826171875,0.08338847730457782,-0.05245455598905682,-0.10987528301812707
1638746339703268900,4.065268798828125,0.03212356949150562,-0.036824732919782395,-0.12083470312356948
1638746339713290800,4.075290771484375,0.0026437925070524216,-0.020128741923719645,-0.07333871938996017
1638746339723311600,4.0853115234375,-0.0013069909453392028,-0.0240858089864254,-0.015420198906585574
1638746339733333800,4.095333740234375,0.03515139288008213,-0.03619045360423624,0.04880728552788496
1638746339743355600,4.105355712890625,0.12356734295785426,-0.020212620814889667,0.07369257432892919
1638746339753377800,4.115377685546875,0.16036358043551444,-0.0185251061193645,0.07013422426022589
1638746339763399700,4.125399658203125,0.1322843178987503,-0.04861600073948502,0.09480375141873955
1638746339773421800,4.135421875,0.1261187810063362,-0.013438158243894577,0.08072999868504703
1638746339783442700,4.145442626953125,0.13439210383296013,0.03757657420039177,0.03841536311209202
1638746339793464600,4.155464599609375,0.12419862659871578,0.043148382983356715,-0.03236519622765481
1638746339803486700,4.16548681640625,0.1014841059654951,0.030329233420640228,-0.0692398327037692
1638746339813508900,4.1755087890625,0.06969137586355209,0.028749416883289813,-0.06095496556982398
1638746339823530800,4.18553076171875,0.04657411964833736,0.02289893728941679,-0.026911533931642768
1638746339833552600,4.195552734375,0.0268786545753479,0.0008174538627266884,0.023008754339441655
1638746339843573800,4.20557373046875,0.07242752282917499,-0.022998744402080773,0.034114451047778126
1638746339853595600,4.215595703125,0.1384019239962101,-0.017287454083189366,0.04652976904995739
1638746339863617500,4.225617431640625,0.15464812539815903,0.009899901115149259,0.020334932020306586
1638746339873640000,4.235639892578125,0.13069266479313374,0.04008819169513881,-0.011877630928903817
1638746339883661800,4.245661865234375,0.08622750012278556,0.05962444761842489,-0.04497041077874601
1638746339893682700,4.2556826171875,0.020759294912219048,0.09037468293011187,-0.07941234021522105
1638746339903704600,4.26570458984375,-0.0021785130828619,0.10081694729365408,-0.076939885687083
1638746339913726700,4.275726806640625,0.01777414162158966,0.10687851235494017,-0.045784211379662154
1638746339923748600,4.28574853515625,0.07316869658529758,0.08209558794982731,-0.04377148331776261
1638746339933770800,4.295770751953125,0.10623977605998515,0.04431026636958122,-0.05955152851268649
1638746339943791600,4.30579150390625,0.11807868241369723,-0.010443944863975048,-0.06114508131444454
1638746339953813800,4.315813720703125,0.10049684849381446,-0.028114845306798815,-0.02936791410781443
1638746339963835600,4.325835693359375,0.07686579753756523,-0.02285195634253323,0.03721475515067577
1638746339973857500,4.335857421875,0.09343114789128303,-0.019349428114295006,0.05877265309467911
1638746339983879700,4.345879638671875,0.12194587923586368,0.0035741321597248313,0.033368674181774256
1638746339993901800,4.35590185546875,0.11614216139316558,0.0185561588447541,-0.015348741105571388
1638746340003922700,4.365922607421875,0.08246434819698334,0.0301616217687726,-0.03616794951148331
1638746340013944600,4.375944580078125,0.03002688947319984,0.03338160672858357,-0.011203896385803817
1638746340023966700,4.385966796875,0.02991758387982845,0.015701061674579977,-0.0059836044542491435
1638746340033988600,4.395988525390625,0.06792436619102954,-0.04208382249176502,-0.0007762450695037841
1638746340044010800,4.4060107421875,0.12087269704639911,-0.062218921091035,0.0008482873924076557
1638746340054033000,4.416032958984375,0.17398820116221902,-0.05913359536156058,-0.006293401055783033
1638746340064053800,4.4260537109375,0.14860241549313066,-0.026838980152085423,-0.032360812313482167
1638746340074075600,4.43607568359375,0.10035714776217937,0.004815145196765661,-0.052547787230461836
1638746340084097500,4.44609765625,0.041330373775959016,0.055439563149213784,-0.0513040707796812
1638746340094119700,4.45611962890625,0.029402035573124884,0.08773863533809781,-0.05068718099035322
1638746340104141800,4.466141845703125,0.05035714531838894,0.07320800568237901,-0.031756416679546234
1638746340114162700,4.47616259765625,0.10656418570876121,0.03259739754833281,-0.0113070644993335
1638746340124184600,4.4861845703125,0.14196984561085702,0.004485036459565162,0.026711700510606166
1638746340134206700,4.496206787109375,0.14795359619557857,-0.0264249925237149,0.04204677841700613
1638746340144228600,4.506228515625,0.13081658343374727,-0.038086058092489834,0.06066453125588595
1638746340154250500,4.51625048828125,0.1201934826105833,-0.04128953030891716,0.05329049535654485
1638746340164273000,4.52627294921875,0.09659399583637714,-0.01807232085056603,0.025506489439308642
1638746340174293800,4.536293701171875,0.09096212742924689,-0.02364193767644465,-0.01791976063735783
1638746340184315600,4.546315673828125,0.08502221598625183,-0.01202792611978948,-0.03526961243227124
1638746340194337500,4.556337646484375,0.08065116129517555,0.013437865982949732,-0.028388109290227292
1638746340204359700,4.566359619140625,0.09792261409163475,0.03870046366378665,-0.009885434198379516
1638746340214381600,4.576381591796875,0.11336451337337493,0.03888634162470698,0.014885799768939613
1638746340224403700,4.58640380859375,0.13524433674812317,0.02641724760867655,0.03766512926667928
1638746340234424600,4.596424560546875,0.1309773269534111,0.003617167583853006,0.04874298812001943
1638746340244446700,4.60644677734375,0.09489245261549949,-0.0051519759356975555,0.04616290849894285
1638746340254468600,4.616468505859375,0.06947393372058867,-0.007311492057144642,0.03612798282727599
1638746340264490500,4.626490478515625,0.06429039360284805,0.010529869581758975,0.010544847955182193
1638746340274512600,4.6365126953125,0.08560147717893123,0.018288520884513854,-0.02816686775498092
1638746340284534800,4.64653466796875,0.1036322239100933,0.026381153381988404,-0.04605316451415419
1638746340294555600,4.6565556640625,0.11953005026578903,0.02509688572511077,-0.04949066468216479
1638746340304577500,4.66657763671875,0.11191782169640063,0.01805449293293059,-0.03537066165395081
1638746340314599700,4.676599609375,0.077925535723567,0.000483545733243227,-0.02837364237345755
1638746340324621600,4.68662158203125,0.07773439706563949,0.02380881867595017,-0.004905234633013606
1638746340334643700,4.696643798828125,0.10777473054230212,0.013735387624800205,0.023979060676321384
1638746340344664800,4.706664794921875,0.15149579884707925,0.033990605472400785,0.02117678967192769
1638746340354686700,4.716686767578125,0.14635492882728576,0.04532660380527377,0.041627091700211165
1638746340364708600,4.72670849609375,0.09499591298997402,0.05327770894020795,0.0660938628282398
1638746340374730800,4.736730712890625,0.0353618207603693,0.04823861879445612,0.051941345769912
1638746340384752600,4.746752685546875,0.0006336217284202575,0.03156030958555638,0.04199782470874488
1638746340394774800,4.75677490234375,0.03324818960726261,-0.011108107861131429,0.01406257375255227
1638746340404795600,4.766795654296875,0.10669862574338912,-0.02516622463427484,-0.00277414088845253
1638746340414817800,4.77681787109375,0.16006781235933304,-0.0324218217857182,-0.001914309188723564
1638746340424839700,4.786839599609375,0.17537234899699686,-0.027396614034846424,0.024652649088948965
1638746340434861600,4.796861572265625,0.151634330534935,0.00021356968544423578,0.015884674613177774
1638746340444883700,4.8068837890625,0.11171674616634845,0.02579860425367951,0.022402093683183192
1638746340454904800,4.81690478515625,0.062218263503909105,0.050060646589845416,0.035333252253010865
1638746340464926700,4.8269267578125,0.03080781071782112,0.07187346914298832,0.041579233970493075
1638746340474948600,4.836948486328125,0.055476388028264045,0.06306991189718246,0.054679319366440174
1638746340484970800,4.846970703125,0.07866320234835147,0.0164870244204998,0.0551568006850779
1638746340494992400,4.856992431640625,0.11791443176269531,-0.041729309965670106,0.03439648285955191
1638746340505014500,4.8670146484375,0.1461357331186533,-0.07802899609804154,-0.016341113143786785
1638746340515035400,4.877035400390625,0.1597942561149597,-0.11779409331865608,-0.0733173843409866
1638746340525057300,4.887057373046875,0.13763386223316193,-0.11896006835810839,-0.1370585465632379
1638746340535079200,4.8970791015625,0.07847966247498989,-0.07815152649916708,-0.20257723985202608
1638746340545101300,4.907101318359375,0.043290860193967814,-0.009254077492281795,-0.1808002923298627
1638746340555123500,4.91712353515625,0.03135200059711933,0.08098667685985565,-0.14259623388089238
1638746340565144300,4.927144287109375,0.027104864546656608,0.14558482123762367,-0.11364493774995207
1638746340575166200,4.937166259765625,0.013340543088316916,0.18145079212784765,-0.1012329807486385
1638746340585188400,4.947188232421875,0.015680968734622002,0.17758016123957931,-0.11839695458263158
1638746340595210200,4.957210205078125,0.03157411891520023,0.128038716218248,-0.1434624953214079
1638746340605232000,4.967232177734375,0.04341711692214012,0.07634966470897198,-0.1694391595557332
1638746340615254500,4.977254638671875,0.033164602977037425,0.00036956396475434304,-0.1733573559127748
1638746340625275400,4.987275390625,0.03882452843487263,-0.027850129956007,-0.16802527416981755
1638746340635297300,4.99729736328125,0.030281156495213506,-0.03057590165808797,-0.1280818977728486
1638746340645319200,5.007319091796875,0.03760170864164829,-0.03495046348050237,-0.054424906213954086
1638746340655341300,5.01734130859375,0.05869710364043712,-0.0453214161735028,-0.02944353662729263
1638746340665363200,5.02736328125,0.10492693989574908,-0.04483940481022,0.017281974190473556
1638746340675384300,5.03738427734375,0.168704707801342,-0.03425254434421658,0.06541662115380167
1638746340685406500,5.047406494140625,0.22090952681303022,0.03919343481250107,0.1262861734624952
1638746340695428400,5.057428466796875,0.22080723548233508,0.12636983315795658,0.16041794097125528
1638746340705450200,5.0674501953125,0.19331600196659565,0.17149726112931965,0.16498678325675428
1638746340715472100,5.07747216796875,0.15957856753766536,0.16449008578099308,0.14535758835300802
1638746340725494300,5.087494384765625,0.1292827979952097,0.05887326392494142,0.05194974827207625
1638746340735515400,5.097515380859375,0.0733726947247982,0.013127046468108892,-0.07103672605790197
1638746340745537300,5.107537353515625,0.01602349856197834,0.04703823002874851,-0.18158143277019262
1638746340755559400,5.117559326171875,-0.016517419558763503,0.10287044575735926,-0.18001907882429657
1638746340765581300,5.127581298828125,-0.009230769681930541,0.1452162801861763,-0.10641052951700984
1638746340775603200,5.137603271484375,0.12316869902908802,0.15610577686056493,-0.10203348347656428
1638746340785625300,5.147625244140625,0.355388139885664,0.1342912738069892,-0.05862140805572271
1638746340795646500,5.157646484375,0.4454933582246303,0.12128756145760416,0.08923486524522305
1638746340805668400,5.16766845703125,0.3144143244624138,0.10049005342684686,0.13677593022957443
1638746340815690200,5.177690185546875,0.04460603444576263,0.01857391369715333,0.012191373053193092
1638746340825712400,5.18771240234375,-0.3014198183327913,-0.18845497180148957,-0.24028343178145586
1638746340835734300,5.197734375,-0.42859950656890866,-0.29539617412909863,-0.5568308958150446
1638746340845755400,5.20775537109375,-0.21463877598047254,-0.21396547982878983,-0.7057670733071864
1638746340855777300,5.21777734375,-0.1053968954950571,-0.30436339750401675,-0.647547816311568
1638746340865799400,5.22779931640625,0.07488251476585865,-0.2889185025475919,-0.4343332279153168
1638746340875821300,5.2378212890625,0.18094108904004097,-0.12359686131328343,-0.14079407982975245
1638746340885843200,5.24784326171875,0.23446692752242088,-0.03512530859075486,0.12059504914879798
1638746340895865300,5.257865234375,0.2300257302045822,-0.03110350572876632,0.4541823491800576
1638746340905886500,5.267886474609375,0.14804127447903156,0.003037541064992547,0.8394535130888223
1638746340915908400,5.277908447265625,0.1255734220832586,0.13132818621769546,0.9892451383665204
1638746340925930200,5.28793017578125,0.16394202344417572,0.14988639088906347,0.924451763677597
1638746340935952400,5.297952392578125,0.17756722869277,0.07937799955420195,0.6057243252564222
1638746340945974300,5.307974365234375,0.13431728503108023,-0.09365670027546584,0.20190978891924022
1638746340955995400,5.317995361328125,0.06007657530009746,-0.2483956457622349,0.06294599325656891
1638746340966017300,5.328017333984375,0.05061959564685821,-0.25486257675401863,0.15913067763969302
1638746340976039400,5.338039306640625,0.11150631828606128,-0.18041421562172472,0.25931254190020264
1638746340986061300,5.348061279296875,0.10157353781461716,-0.1373500768557191,0.3855778187051415
1638746340996083200,5.358083251953125,0.07442951030135155,-0.018386355235800147,0.4549430313542485
1638746341006105300,5.368105224609375,0.11102701033651828,0.10032792166769504,0.437129799831286
1638746341016126500,5.37812646484375,0.15547522387206553,0.12336853245012461,0.48157830562777815
1638746341026148400,5.3881484375,0.24568857876062392,0.18699235190302133,0.5419115591026842
1638746341036170200,5.398170166015625,0.2935848869234323,0.2665595173537731,0.16952902979627252
1638746341046192400,5.4081923828125,0.20601883167326449,0.21196451526992022,-0.2878222317434847
1638746341056214300,5.41821435546875,0.09185293878912926,0.13312632168084382,-0.4706758764065802
1638746341066235400,5.4282353515625,0.056638417544960976,0.11336254061199724,-0.3615021657865494
1638746341076257300,5.43825732421875,0.05866553945839405,0.06704195733331143,-0.24363449577502905
1638746341086279400,5.448279541015625,0.14525310506522654,-0.015292846199870109,-0.1321662444770336
1638746341096301300,5.45830126953125,0.2126987478286028,-0.02878478045761585,0.06971965210996568
1638746341106323200,5.4683232421875,0.3396218309551477,-0.08230835391767323,-0.021268632673844694
1638746341116345300,5.478345458984375,0.4136503592401743,-0.09375058910399675,-0.23281126926988363
1638746341126366500,5.488366455078125,0.3549251985490322,-0.0295958776447922,-0.14053484437167643
1638746341136388400,5.498388427734375,0.2781371424227953,0.025324483935907482,0.03406907753609121
1638746341146410200,5.50841015625,0.1996276693314314,0.06979162136763334,0.0745750562518835
1638746341156432400,5.518432373046875,0.11206979738771915,0.02548435067273676,0.00989909739755094
1638746341166454300,5.528454345703125,0.04057400245070457,-0.016375746065750717,-0.0650488107547164
1638746341176475400,5.538475341796875,0.07918693396151065,-0.03952829279005527,-0.27684556824229656
1638746341186497500,5.54849755859375,0.11104454599320888,-0.023534897105395792,-0.43093847091048954
1638746341196519400,5.55851953125,0.10287585258483886,0.02381415243819356,-0.4226217473335564
1638746341206541300,5.568541259765625,0.047619244787096976,0.06305982889458536,-0.29979316697902975
1638746341216563200,5.578563232421875,-0.01978840405344963,0.08075761734433472,-0.13112133853398264
1638746341226585300,5.58858544921875,-0.10506254897415637,0.016306114895641804,0.06243073721081018
1638746341236606500,5.5986064453125,-0.09134908092021941,-0.08078443228602408,0.17142565719783306
1638746341246628400,5.60862841796875,-0.04493687383532524,-0.10400909439846873,0.20597017022594807
1638746341256650500,5.618650390625,-0.03180266697406769,-0.07880604488514363,0.13616802746430037
1638746341266672400,5.62867236328125,-0.057822074371576306,-0.040582331887632606,-0.022667247425392268
1638746341276694300,5.6386943359375,-0.11644786634147167,-0.08418181963935494,-0.16341420017778874
1638746341286715400,5.64871533203125,-0.17826456330716609,-0.12333769892044365,-0.2528849200055003
1638746341296737500,5.658737548828125,-0.16589140394628046,-0.11717062765806913,-0.32689525504671035
1638746341306759400,5.668759521484375,-0.0690028090775013,-0.042337431926652784,-0.3607937983214855
1638746341316781300,5.67878125,0.057954176318645474,-0.008498071493208408,-0.3386772435814142
1638746341326803500,5.688803466796875,0.13288228379189967,-0.031504926136508585,-0.2337442392710596
1638746341336825300,5.698825439453125,0.1442085644483566,-0.04051043569520116,-0.08674019888527691
1638746341346846500,5.708846435546875,0.10869827512800694,-0.004680266770720482,0.029123364762216806
1638746341356868400,5.718868408203125,0.05478665219843387,0.02508388011306524,0.09535181375555693
1638746341366890500,5.728890380859375,0.040268882024288175,0.10828282619491218,0.12405103482156991
1638746341376912400,5.738912353515625,0.0671118807643652,0.20415325699709355,0.1177861292079091
1638746341386934300,5.748934326171875,0.07308160282373428,0.2551453392181545,0.09369776293821633
1638746341396955100,5.758955078125,0.09836626620590687,0.2299190549597144,0.07509630364701152
1638746341406977500,5.7689775390625,0.1603916374862194,0.19387838508971034,0.045327699783816934
1638746341416999400,5.77899951171875,0.20126666871011256,0.19215134210139512,0.00020670155324041843
1638746341427021300,5.789021240234375,0.19678280129432676,0.18578633711412548,-0.047683980586379765
1638746341437043500,5.79904345703125,0.1880669953972101,0.15764504219181835,-0.055142041507363314
1638746341447065300,5.8090654296875,0.1782254003405571,0.12637173285409808,-0.02497194417119026
1638746341457086200,5.819086181640625,0.16953531340658665,0.07803739860020577,0.015213205092400312
1638746341467108400,5.8291083984375,0.11664017404317856,0.024737039436772464,0.057430298575013874
1638746341477130500,5.839130615234375,0.06988894426226616,-0.02213913189806044,0.07161050735786557
1638746341487152400,5.84915234375,0.04276362144947052,-0.0377010042976588,0.05558591281734407
1638746341497174300,5.85917431640625,0.06785363904237747,-0.05501921884529292,-0.020483181384578344
1638746341507195100,5.869195068359375,0.11508593033850192,-0.04729490820355713,-0.06498378269448876
1638746341517217300,5.87921728515625,0.13907061703801155,-0.046757148065045474,-0.08286642619185149
1638746341527239400,5.889239501953125,0.12831190713644028,-0.044769919770583505,-0.07850757339522242
1638746341537261300,5.89926123046875,0.10206745881140232,-0.04004917485900223,-0.06373772815614938
1638746341547283200,5.909283203125,0.07351473354399204,0.0053237523060292,-0.07998078775294125
1638746341557305000,5.91930517578125,0.0476835421949625,0.03873202784582972,-0.10003376102671027
1638746341567326200,5.929326171875,0.018353987336158752,0.049520840624719856,-0.06690306031927466
1638746341577348400,5.939348388671875,0.013692425265908241,0.0340022228449583,-0.012882570187747478
1638746341587370200,5.949370361328125,0.03630874622166157,0.004855184946209192,0.014406637949869036
1638746341597392400,5.959392333984375,0.06180792913734912,-0.03128945675492287,-0.01690766098536551
1638746341607414300,5.969414306640625,0.0868880098581314,-0.06180705235451459,-0.045392654778808356
1638746341617435100,5.97943505859375,0.09203238700926303,-0.049860009451210496,-0.07252469959333539
1638746341627457000,5.98945703125,0.09557809679210186,-0.041276670827344056,-0.062374184717983006
1638746341637479400,5.9994794921875,0.1113005665808916,-0.048781639629974956,-0.026372020227462052
1638746341647501300,6.009501220703125,0.12835866888761518,-0.057360229013487696,0.03012698884680867
1638746341657523200,6.019523193359375,0.12114157711565494,-0.06013714638091623,0.05912424301132559
1638746341667545300,6.02954541015625,0.10911971541047095,-0.019470058819279074,0.09171579534076153
1638746341677566200,6.039566162109375,0.09427987367510796,-0.0038663200393319126,0.1059936923444271
1638746341687588000,6.049588134765625,0.09651683894693851,0.011021452490985392,0.08581336636394261
1638746341697610200,6.0596103515625,0.12678630500435828,0.023678031903132796,0.043491132006421684
1638746341707632400,6.06963232421875,0.14658990662693977,0.026059593277424572,-0.02441898646354675
1638746341717654300,6.079654296875,0.11381225714087485,0.04655782610066235,-0.04257270198725164
1638746341727675100,6.089675048828125,0.09516717790365219,0.03174289961084723,-0.032659356868639584
1638746341737697000,6.099697021484375,0.11271101790070533,0.026754005282372234,-0.012889803646132349
1638746341747719200,6.10971923828125,0.10032909071147442,0.028034692742675543,0.014199351874738931
1638746341757741300,6.1197412109375,0.10938216573894023,-0.003337693055346608,0.009817483528703451
1638746341767763200,6.12976318359375,0.10411094733774662,-0.030716844498738644,0.0028723405659198758
1638746341777785300,6.139785400390625,0.09604512978196143,-0.05608334094546735,-0.024683336488157508
1638746341787806200,6.14980615234375,0.07455576702952385,-0.0770147775541991,-0.06121646605022251
1638746341797828000,6.159828125,0.07612228569388389,-0.06802921480499208,-0.06338248497769236
1638746341807850200,6.169850341796875,0.08263502858877181,-0.030060937873274088,-0.050694122187793254
1638746341817872400,6.179872314453125,0.06862286984920501,0.01610810810551047,-0.02260689554028213
1638746341827894300,6.189894287109375,0.07641922281384468,0.04550122971981763,-0.008301379877328872
1638746341837915100,6.1999150390625,0.08328677049577236,0.07322612586095929,-0.009163257403671741
1638746341847937000,6.20993701171875,0.08474398356676101,0.08281221178658306,-0.04592500808984041
1638746341857959200,6.219959228515625,0.08378186053633689,0.08590857036672532,-0.05592734666615724
1638746341867981300,6.229981201171875,0.10168518149554728,0.07791559885144234,-0.07028861110433936
1638746341878003200,6.240003173828125,0.10643734445869922,0.06108524088598787,-0.07083418922312558
1638746341888025300,6.250025390625,0.12123685418367385,0.028148601445928213,-0.08516980776339769
1638746341898046200,6.260046142578125,0.09549158755242824,0.008792743590846657,-0.05145904214568436
1638746341908068000,6.270068115234375,0.06718903765380382,-0.0005823299326002597,-0.03142820763848722
1638746341918090000,6.280090087890625,0.055986675637960434,-0.009385375721752643,0.00788220461718738
1638746341928112400,6.2901123046875,0.06204466050267219,-0.0043791649322956795,0.04112885985448956
1638746341938134300,6.30013427734375,0.09582242694199085,0.009967121132463216,0.04391147631034255
1638746341948155100,6.310155029296875,0.13260463589429855,0.03134118694216013,0.014951047024875878
1638746341958177000,6.320177001953125,0.13255319796800613,0.033713249835744495,0.010591171314939855
1638746341968199200,6.33019921875,0.12369944490492343,0.03373918799459934,0.028013796085119246
1638746341978221000,6.340220947265625,0.08759469682276248,0.049319984290376304,0.039847295611351724
1638746341988243200,6.3502431640625,0.07841010437011718,0.044307416825369,0.03587583469711244
1638746341998265300,6.360265380859375,0.09328384837508201,0.022978578396886586,0.0065229720279574395
1638746342008286200,6.3702861328125,0.13149287526011466,-0.02092266878038645,-0.02289469950571656
1638746342018308000,6.38030810546875,0.13083996430933476,-0.04059066132456064,-0.03686681849583983
1638746342028330200,6.390330322265625,0.11993863106667994,-0.054160483124107116,-0.061059448857605454
1638746342038352100,6.40035205078125,0.07474982829689979,-0.054363458350300785,-0.08125847953855991
1638746342048374300,6.410374267578125,0.05737082347273826,-0.008977014116570353,-0.07186923135928809
1638746342058395100,6.42039501953125,0.06754442696273326,0.010656637766584754,-0.043721287500485775
1638746342068417300,6.430417236328125,0.0996107133090496,0.010451616713777184,-0.05129698345176875
1638746342078439200,6.440439208984375,0.1256792205452919,0.01425078980103135,-0.06694156569875777
1638746342088461000,6.4504609375,0.13121172023117542,0.0012886515710502863,-0.057103258577734226
1638746342098483200,6.460483154296875,0.11085749898850918,-0.0175523155644536,-0.03696589495614171
1638746342108504300,6.47050439453125,0.07796002251505851,-0.014230258469656108,0.006691752723604441
1638746342118526200,6.480526123046875,0.060953942656517025,-0.016424553643539546,0.03534749997407198
1638746342128548000,6.490548095703125,0.06902268282175064,-0.042186333018168806,0.050699455950036644
1638746342138570200,6.5005703125,0.11682605200409889,-0.03782105048075318,0.04281739746332169
1638746342148592000,6.510592041015625,0.12695581635236738,-0.009616481063887477,-0.007055179208517074
1638746342158614300,6.5206142578125,0.10579437038004398,0.021723975225910543,-0.0835786661144346
1638746342168635100,6.53063525390625,0.11435761606395244,0.043605479101091624,-0.11319427137300371
1638746342178657300,6.5406572265625,0.12305530178248882,0.03359751450158655,-0.08178301486931741
1638746342188679200,6.55067919921875,0.15185469528734682,0.023448753191903232,-0.04193769201934337
1638746342198701000,6.560701171875,0.17953531389534472,0.03616831483766436,-0.012530980271100996
1638746342208723200,6.57072314453125,0.15317103858292103,0.025232640933990476,0.02319192888662219
1638746342218744300,6.580744384765625,0.09809154091775417,0.00047952714525163173,0.08248626776784658
1638746342228766200,6.59076611328125,0.08156359996497631,-0.03389649744816124,0.13101612459383905
1638746342238788000,6.6007880859375,0.10391805511415005,-0.0393725177064538,0.15967574430182574
1638746342248810200,6.610810302734375,0.14758359383940695,-0.06488076071143149,0.1766324320606887
1638746342258832100,6.62083203125,0.1819932284414768,-0.10390877582915127,0.1832386984579265
1638746342268854000,6.63085400390625,0.20850129613876342,-0.10116188827380537,0.17939663607701659
1638746342278875100,6.640875244140625,0.20602000071704388,-0.05388407733552158,0.20352350772619246
1638746342288897300,6.650897216796875,0.19633330396115778,-0.0015616963587701319,0.21885785498023033
1638746342298919200,6.660919189453125,0.15276713395714758,0.01877615827098489,0.2301221763163805
1638746342308941000,6.670941162109375,0.07412731248438358,0.03219173935689032,0.22243943979404865
1638746342318963200,6.680963134765625,-0.014250643670558928,0.036207477804273365,0.10051350736767053
1638746342328984300,6.690984375,-0.04792845686674118,0.05304587294571101,-0.06710815443731843
1638746342339006200,6.701006103515625,-0.04614800319075584,0.0924224092401564,-0.21670330729484558
1638746342349028000,6.711028076171875,-0.017732056045532227,0.14482063193209468,-0.334385245475918
1638746342359050200,6.72105029296875,0.0019967267751693726,0.18969350062049925,-0.4275160952463746
1638746342369072000,6.731072021484375,-0.011240940460562706,0.17861038107015192,-0.43252026020921763
1638746342379094000,6.741093994140625,-0.02793137849867344,0.11506832161657511,-0.3628600832015276
1638746342389115100,6.751115234375,-0.047391281250119204,0.07409172971434891,-0.25944442465156314
1638746342399137300,6.76113720703125,-0.05952420211434364,0.03703706049621105,-0.137585712242499
1638746342409159200,6.7711591796875,-0.06636369274556636,0.02618811502791941,-0.05754530325680971
1638746342419181000,6.78118115234375,-0.041699207088351245,0.026833792520314453,0.02772043916173279
1638746342429203200,6.791203125,0.012689385703206062,0.02591989254578948,0.07727014055475592
1638746342439224300,6.801224365234375,0.06120937872231006,0.004394727827608585,0.09599193828999995
1638746342449246200,6.81124609375,0.09734744455218315,-0.018610007923841477,0.09699760820120572
1638746342459268000,6.82126806640625,0.1198141279041767,-0.030130861304327843,0.09040288611128926
1638746342469290200,6.831290283203125,0.10943711079657077,-0.0223299052298069,0.07296528296768665
1638746342479312100,6.84131201171875,0.11826689846217632,-0.014625468332320452,0.04619914885610342
1638746342489334000,6.851333984375,0.12408815196156502,-0.0017936784837394952,0.048994624793529507
1638746342499355600,6.861355712890625,0.14322306054234504,0.00015007599517703055,0.05024250596277415
1638746342509377800,6.871377685546875,0.1398784262895584,0.011170870899036525,0.03532360764183104
1638746342519399700,6.881399658203125,0.12170914787054062,0.009867679345980287,0.04031812799349427
1638746342529421600,6.891421630859375,0.1084422545403242,0.01700695664137602,0.032405235977098344
1638746342539443700,6.901443603515625,0.10132686957716941,0.020620032572001217,0.030318200569972396
1638746342549464600,6.911464599609375,0.10262976886928081,0.019920506000518798,0.024440029251575467
1638746342559486700,6.92148681640625,0.10201777445077896,0.014664850494638084,-0.0010923252813518046
1638746342569508600,6.931508544921875,0.09068214144408702,-0.008568141054734588,-0.03469188560955226
1638746342579530800,6.94153076171875,0.07754793458282946,-0.02648994751870632,-0.07795768442749977
1638746342589552600,6.951552734375,0.06580488981902599,-0.0033981910709291693,-0.11288169829249381
1638746342599573500,6.961573486328125,0.08306465217769146,0.020901479861885307,-0.13169606968201697
1638746342609595600,6.971595703125,0.11037877556085586,0.042321065313741565,-0.1515042013492435
1638746342619617800,6.98161767578125,0.1368202077627182,0.052494668803736565,-0.17611337662264703
1638746342629639700,6.9916396484375,0.13272797001302242,0.05890161323659122,-0.16146116641387342
1638746342639661600,7.00166162109375,0.10396657043099403,0.05754303823448717,-0.14919380551502107
1638746342649683700,7.01168359375,0.07115735676288604,0.05496398152671754,-0.1420763747252524
1638746342659704600,7.02170458984375,0.06020049394071102,0.03536635080501437,-0.1298992493931204
1638746342669726700,7.031726806640625,0.0735118109345436,0.014255465976148842,-0.09016169776655733
1638746342679748600,7.04174853515625,0.09793372000753879,-0.02571311792731285,-0.04590352691039443
1638746342689770800,7.051770751953125,0.09952420406937598,-0.06019735213555395,0.009286810718104242
1638746342699792600,7.061792724609375,0.12016893269121647,-0.07427088567353785,0.04007956999726593
1638746342709813500,7.0718134765625,0.13722586595416067,-0.06009761808812618,0.05771057682111859
1638746342719835400,7.08183544921875,0.13394552910923957,-0.03258037334829569,0.0651022214423865
1638746342729857800,7.09185791015625,0.13261866441965103,-0.010836743573844431,0.06726707132607698
1638746342739879700,7.101879638671875,0.12289689635038376,-0.014510609780997037,0.062399319159239526
1638746342749901600,7.111901611328125,0.10684650978147983,-0.00493402233608067,0.0762019268013537
1638746342759923700,7.121923828125,0.08010638689398765,0.006402049062028527,0.06206263455078005
1638746342769944600,7.131944580078125,0.07692600329220295,0.01811162994764745,0.037360374166443944
1638746342779966700,7.141966796875,0.07972410957813263,0.007228855274990201,0.016160568945109845
1638746342789988600,7.151988525390625,0.09748246910870074,0.01447005857490003,-0.0010601765774190426
1638746342800010800,7.1620107421875,0.11749825217723846,0.002473331310972571,-0.03818944540172815
1638746342810032600,7.17203271484375,0.10863631580770015,0.005235197239741683,-0.048900078377872705
1638746342820053500,7.182053466796875,0.08796820631027222,0.008758183734118938,-0.03528868245892226
1638746342830075600,7.19207568359375,0.06370645623505115,0.024777955969050525,-0.013274199853837489
1638746342840097800,7.202097900390625,0.06446399660408496,0.03455627653114497,-0.019738500497117638
1638746342850119700,7.21211962890625,0.08723170872926711,0.041046442268043756,-0.019718919013813136
1638746342860141600,7.2221416015625,0.1055062010884285,0.032634222427383064,-0.028659181316569447
1638746342870162700,7.23216259765625,0.09431260690093039,0.026625337401404974,-0.018279899186640976
1638746342880184600,7.2421845703125,0.0840215145111084,0.007379369661584496,-0.00961143956258893
1638746342890206500,7.25220654296875,0.07105155830085277,-0.007135770164057612,-0.01221161212362349
1638746342900228900,7.262228759765625,0.07242518474161624,0.0077500296048820016,-0.01442651169411838
1638746342910250800,7.272250732421875,0.08443418696522713,0.013042363859340548,-0.018118205818906424
1638746342920271600,7.282271728515625,0.09151274704933166,0.025257336983829735,-0.017465367933362723
1638746342930293500,7.29229345703125,0.09993863008916377,0.017767492685094474,-0.020669716932624576
1638746342940315600,7.302315673828125,0.07765256400108336,0.02400879822745919,-0.01653575893305242
1638746342950337500,7.312337646484375,0.06643792702555656,0.02385506897047162,-0.007490136559680104
1638746342960359700,7.322359619140625,0.06944061597287654,0.027399463579058647,-0.0002674187645316124
1638746342970381800,7.3323818359375,0.0968137760668993,0.03515336564145982,-0.0019082447741180658
1638746342980402700,7.342402587890625,0.10683072769045829,0.03440086677372455,0.008480316640809178
1638746342990424600,7.352424560546875,0.10953706403970717,0.007595715826004743,0.011625190537795423
1638746343000446500,7.362446533203125,0.1118278053253889,-0.0010779314298182726,0.001779284632205963
1638746343010468600,7.372468505859375,0.10543488941788673,0.0018987462934106588,-0.009460048393160104
1638746343020490800,7.38249072265625,0.10039572620689868,-0.0020602935306727886,-0.0021595891866832972
1638746343030511600,7.39251171875,0.09938333429396153,-0.009083470165729522,0.007899740273877978
1638746343040533500,7.402533447265625,0.11003332312405109,-0.012740239107608794,0.0032430735744535923
1638746343050555600,7.4125556640625,0.10752513969540595,-0.008027969763427973,0.009306757527589797
1638746343060577500,7.42257763671875,0.08630699509978294,-0.009602525603771209,0.0063166358008980746
1638746343070599700,7.432599609375,0.06250818636119365,-0.02040339414663613,-0.0031289456754922864
1638746343080621800,7.442621826171875,0.05726677857637405,-0.0062581836119294165,0.004650383089110255
1638746343090642700,7.452642578125,0.07044424005746841,0.011092325770109891,-0.01796506108380854
1638746343100664600,7.46266455078125,0.09903320568203926,0.034308877641335125,-0.03850296833030879
1638746343110686500,7.4726865234375,0.10722001926898955,0.023914982464164493,-0.04063172398731112
1638746343120708600,7.48270849609375,0.102704003149271,0.03731763100326061,-0.021386048508435486
1638746343130730800,7.492730712890625,0.0875678088158369,0.017221622305363414,-0.01858304685167968
1638746343140751600,7.502751708984375,0.07782382891476154,0.012177709854021668,-0.015454101176187396
1638746343150773500,7.5127734375,0.07479892813563346,0.005894610996544361,-0.012539821164682507
1638746343160795600,7.522795654296875,0.08598959971368313,0.009667992055416106,-0.009332841816917061
1638746343170817500,7.532817626953125,0.09525602523088454,-0.010775953297317028,-0.012222644974291324
1638746343180839400,7.54283935546875,0.08409341070353984,-0.013666998563706874,-0.016437340059876442
1638746343190860500,7.552860595703125,0.08771919998526573,-0.021795213831216097,-0.038030747708678245
1638746343200882700,7.562882568359375,0.08249357429146766,-0.0022923487208783627,-0.049552770132943985
1638746343210904600,7.572904541015625,0.0844441238373518,0.01386376324482262,-0.05031644798181951
1638746343220926500,7.582926513671875,0.10434124896228313,0.041456045982241625,-0.03508548803701997
1638746343230948600,7.592948486328125,0.11001286485791206,0.028600802192836998,-0.03452076682634651
1638746343240970500,7.602970458984375,0.10402385357618331,0.032885639905184505,-0.022972294786572454
1638746343250991600,7.61299169921875,0.09473580074906349,0.012609671530500053,-0.01356280753687024
1638746343261013500,7.623013427734375,0.08726151934564114,0.019500673153251408,-0.009961129783093929
1638746343271035600,7.63303564453125,0.08441665130853652,0.012042758362740278,0.001383344117179513
1638746343281057500,7.6430576171875,0.10256780954897403,0.01015299909338355,0.005393164280429482
1638746343291079400,7.653079345703125,0.11684943287968635,0.0004066811047494411,-0.0001590630192309618
1638746343301100800,7.663100830078125,0.10749942073225974,-0.005067804783582687,0.0058509910505264995
1638746343311122700,7.673122802734375,0.09097031073570251,-0.013448606572672724,-0.001144639990478754
1638746343321144600,7.68314453125,0.08686287541687487,-0.013142390167713165,0.0012733809366822241
1638746343331166500,7.69316650390625,0.08692541925907135,0.003094458884000778,-0.012055910105258225
1638746343341188600,7.703188720703125,0.10510463455021381,0.017245879963785408,-0.014792057070881128
1638746343351209700,7.713209716796875,0.10487199483811854,0.009764584297686814,-0.004673544768989086
1638746343361231600,7.723231689453125,0.10795067163109778,0.01556114174723625,0.0035847266189754008
1638746343371253800,7.733253662109375,0.10337444975674152,0.023260610208660364,0.0031938276052474973
1638746343381275600,7.743275634765625,0.10163958878815174,0.03707622346282005,-0.0075381404198706144
1638746343391297500,7.753297607421875,0.09211422007381916,0.05564056561402976,-0.01919094961695373
1638746343401319700,7.763319580078125,0.08645429461598396,0.047429275172948836,-0.018449483599886296
1638746343411340800,7.7733408203125,0.08319032438397407,0.028768121583759784,-0.0027271599415689706
1638746343421362700,7.78336279296875,0.08323825517892837,0.005012859725952148,0.003071078008413315
1638746343431384600,7.793384521484375,0.07159633270204067,-0.010318637983873486,0.006561769668385386
1638746343441406700,7.80340673828125,0.07038637239038943,-0.022188743193447588,-0.01246018005721271
1638746343451428600,7.8134287109375,0.07265256375670433,-0.019685601266101003,-0.02001651372089982
1638746343461449700,7.82344970703125,0.08421323769092559,-0.004659150917455554,-0.011717398865893482
1638746343471471600,7.8334716796875,0.10495207433700561,-0.0005585106655955314,-0.012952347488328814
1638746343481493800,7.84349365234375,0.11639818198084831,0.009242021728307008,-0.025416034676879643
1638746343491515600,7.853515625,0.10714987664222717,0.012502119502797723,-0.0271608325175941
1638746343501538000,7.8635380859375,0.0902431655049324,0.020139555578678844,-0.03280972512476146
1638746343511559000,7.873558837890625,0.07167173602581024,0.036809023893997074,-0.02773717110082507
1638746343521581000,7.8835810546875,0.06370820980072021,0.031235169284418222,-0.013171835457906126
1638746343531603200,7.893603271484375,0.09508943649232388,0.025872473207488655,0.012888780732825398
1638746343541625000,7.903625,0.09342471815049648,0.009256780906021594,0.026946093788370488
1638746343551647200,7.913647216796875,0.08938859450221061,-0.0006515957765281201,0.017620777690783143
1638746343561669000,7.923669189453125,0.09001403292417526,-0.013027750812098383,0.005393310410901904
1638746343571690000,7.93368994140625,0.10776479367017745,-0.0007694500025361776,0.01796849514991045
1638746343581712100,7.943712158203125,0.1303460433125496,0.012319529477506875,0.01956840462721884
1638746343591734300,7.953734375,0.1680775158137083,0.01802533990368247,0.028227365770563482
1638746343601756200,7.963756103515625,0.20016192233860491,0.008490911100059747,0.040856253458186984
1638746343611778000,7.973778076171875,0.1598293274283409,0.001035626658052206,0.07075330600664019
1638746343621799000,7.983798828125,0.075655837225914,-0.04313442752324045,0.06541866698041558
1638746343631821000,7.993821044921875,0.014542320093512534,-0.03409574634730816,0.03128200410082936
1638746343641843200,8.00384326171875,0.008325345274806021,0.003308686156570911,-0.04543620165959
1638746343651865000,8.013864990234374,0.033526422026753426,0.01287833240404725,-0.1380024032846093
1638746343661887200,8.02388720703125,0.07547112830877303,-0.023012772927433253,-0.252801990962401
1638746343671908000,8.033908203125,0.13614742306768893,-0.013745762888342141,-0.3144499072324484
1638746343681930000,8.043929931640625,0.11416530836224555,0.04934913731962442,-0.31591954139359296
1638746343691951900,8.053951904296875,0.04133154281973839,0.07375460671447218,-0.24935864557549356
1638746343701974300,8.063974365234374,-0.0006371288597583771,0.04071216881237924,-0.11951806756705045
1638746343711996200,8.07399609375,0.03183423115611076,0.08221694930717349,-0.030666794811934232
1638746343722018000,8.08401806640625,0.06387947471439838,0.05744849181883037,0.016984452548623085
1638746343732039000,8.094038818359374,0.07217734746038913,0.022259178081154823,0.05939414599388838
1638746343742061000,8.10406103515625,0.0634428368628025,0.00665171297416091,0.05501417734399438
1638746343752083000,8.1140830078125,0.06922200478613376,0.0002462298460304737,0.06089088735766709
1638746343762105000,8.12410498046875,0.05901274546086788,-0.002053133137524128,0.05231726641021669
1638746343772127200,8.134127197265625,0.06787468183040618,-0.017745061657577752,0.04499773717708885
1638746343782148000,8.144148193359374,0.07467734758257866,-0.038410979197919366,0.030475144697353244
1638746343792170000,8.154169921875,0.09068506405353545,-0.05138159299530089,0.000642535687237978
1638746343802192000,8.16419189453125,0.07354454416036606,-0.043589843140542504,-0.008777692152187228
1638746343812214000,8.174214111328125,0.037620997864007945,-0.019727906037867067,0.0009763707514852285
1638746343822236200,8.184236083984375,0.05269932453036308,0.027174861042946575,0.025446210619434712
1638746343832257000,8.194257080078126,0.008263385954499243,-0.00723594260290265,0.000881166748702526
1638746343842279200,8.204279052734375,0.027981647381186484,0.0052876580793410535,-0.0016574118182063101
1638746343852301000,8.214301025390625,0.08213760046064854,0.012499854480475187,-0.007968129334971309
1638746343862323000,8.224322998046874,0.10413608177900313,0.01825600685440004,-0.005463014646247029
1638746343872345000,8.234344970703125,0.09743103118240833,0.03232851747907698,-0.0009437105908989906
1638746343882367200,8.2443671875,0.09491291088163852,0.03939487566873431,0.012174714179337024
1638746343892388000,8.25438818359375,0.1063338840842247,0.035140213898941876,0.04542714157029986
1638746343902410000,8.264409912109375,0.1302186175405979,0.010728680089488626,0.08168430373519658
1638746343912432000,8.27443212890625,0.15296762496531008,-0.026648279885575173,0.09943842548206448
1638746343922454000,8.2844541015625,0.16519348480999468,-0.04060249789282679,0.140025579675287
1638746343932476200,8.29447607421875,0.16733751110136508,-0.02629362122900784,0.1454553496390581
1638746343942497000,8.3044970703125,0.14737901117801666,-0.01088708552159369,0.13744783814176917
1638746343952519200,8.314519287109375,0.1464835236430168,-0.01322802262455225,0.12565138269029558
1638746343962541000,8.324541015625,0.16477262904942036,-0.015093085844069718,0.09633841364011168
1638746343972563000,8.33456298828125,0.16137480330467224,0.0034676761105656624,0.056619274453073735
1638746343982585000,8.344585205078126,0.11779343573153019,0.021410525362566112,0.01118723751194775
1638746343992606200,8.354606201171874,0.04926818103790283,0.03699468265920877,-0.020414500062540173
1638746344002628000,8.364628173828125,0.019256489133834837,0.0638903614345938,-0.03321984029561281
1638746344012650000,8.37464990234375,0.02407528759241104,0.06757482210099697,-0.05607435392141342
1638746344022672100,8.384672119140625,0.05700666633546352,0.07005626365318894,-0.08175634605810046
1638746344032694000,8.394694091796875,0.06611293285489082,0.06104037883095443,-0.12575783873945473
1638746344042715100,8.404715087890626,0.044838089635968206,0.051839054439216846,-0.1418719381943345
1638746344052737000,8.414737060546875,0.02895487632751465,0.036545185326039786,-0.15652020288035273
1638746344062759200,8.42475927734375,0.00006195932030677795,0.05256283866912126,-0.15921419120468197
1638746344072781000,8.434781005859374,0.028493688556551933,0.0498141244828701,-0.15359094449542463
1638746344082803000,8.444802978515625,0.062031801021099085,0.0516463083460927,-0.14241832003071903
1638746344092825000,8.4548251953125,0.09215513660609721,0.02396006371490657,-0.10503536870628595
1638746344102846200,8.46484619140625,0.10194938538968562,0.014623714766651391,-0.059781245615333316
1638746344112868000,8.4748681640625,0.09203647866249084,0.015502543427795171,-0.021376184701547025
1638746344122890000,8.484889892578124,0.077612231990695,0.011770736488327384,0.029985899875685573
1638746344132912000,8.494912109375,0.09702245038151741,-0.01100698557421565,0.06552738805189728
1638746344142934000,8.50493408203125,0.1134966153204441,-0.019604425788670776,0.10158742020949721
1638746344152955100,8.514955078125,0.1401923145443201,-0.053910819211974735,0.12476670881025492
1638746344162977000,8.52497705078125,0.1557598860323429,-0.0709193832885474,0.1393381819330156
1638746344172999200,8.534999267578126,0.17107669762969016,-0.06783807614706457,0.15935184610970318
1638746344183021000,8.54502099609375,0.1784954494535923,-0.030257702554389834,0.21739523508176206
1638746344193043000,8.55504296875,0.21064064625501633,-0.016093421993032098,0.24198446354568004
1638746344203064000,8.56506396484375,0.2691787599414587,0.01857318304479122,0.21967333608157932
1638746344213086200,8.575086181640625,0.26944764001071453,0.07982340523414314,0.1898364892877638
1638746344223108000,8.585108154296876,0.24312194314301014,0.12896145708635448,0.1787728781554848
1638746344233130000,8.5951298828125,0.23364450522363184,0.04439297621697187,0.15508469018451868
1638746344243152100,8.605152099609375,0.06124328099191188,-0.05731902022026479,-0.0028960867676883933
1638746344253173000,8.615173095703126,-0.06757949827611447,0.008269888760522008,-0.3114616852018982
1638746344263195100,8.625195068359375,-0.36213410701453685,-0.09185228120200335,-0.6283605199564248
1638746344273217300,8.63521728515625,-0.5017506674975156,-0.15490063885450361,-0.8455984455846249
1638746344283239200,8.6452392578125,-0.4105915561914444,-0.13697707882486282,-0.7677792928449809
1638746344293261000,8.655260986328125,0.14120996715426445,-0.008056903596967459,-0.2369933041948825
1638746344303283000,8.665282958984376,0.6047533613324165,-0.09270078779011964,0.18945932653844355
1638746344313304000,8.675303955078125,0.7073749468952417,-0.09089892599992454,0.25580248795263466
1638746344323326200,8.685326171875,0.42255262762010093,0.04471322114728391,0.14814736520200966
1638746344333348000,8.69534814453125,-0.0070399816393852226,0.1420973444480449,0.11677118001170456
1638746344343370200,8.705370361328125,-0.2302531092196703,0.2725638723351061,0.2507286918196827
1638746344353392000,8.71539208984375,-0.21468378416597841,0.3500925907608121,0.3839645382896065
1638746344363413000,8.7254130859375,-0.03800035257041454,0.2854376746945083,0.32429617846421893
1638746344373435100,8.73543505859375,0.19412147313058375,0.17974347675330934,0.12498634291030465
1638746344383457300,8.745457275390624,0.3210363729506731,0.07351429515257478,-0.036930239120870824
1638746344393479200,8.755479248046875,0.31103344985246656,-0.04643792604804039,-0.08686419059112667
1638746344403501000,8.7655009765625,0.1784855125814676,-0.15753902453407645,-0.10953976745344698
1638746344413522000,8.77552197265625,0.010180033230781555,-0.20066914120838045,-0.13361461665444074
1638746344423544000,8.7855439453125,-0.08064706964194775,-0.20092837666645644,-0.15303418739549815
1638746344433566200,8.795566162109376,-0.047938978260755535,-0.1428514507509768,-0.13110679855197668
1638746344443588000,8.805588134765625,0.058202013599872586,-0.055272243758291005,-0.06570420592352748
1638746344453610200,8.8156103515625,0.15752397309541702,0.030259383054822682,0.007938757110014558
1638746344463632100,8.825632080078124,0.22072131076455115,0.09865633519366383,0.050432402511686084
1638746344473653000,8.835653076171875,0.17539923700392246,0.13674889609217644,0.07559066303521395
1638746344483675000,8.8456748046875,0.08857786264121532,0.1342568600807339,0.07501030586399138
1638746344493697300,8.855697265625,0.04230886341929435,0.10245755410753189,0.05053827403895557
1638746344503719000,8.865718994140625,0.050642976522445676,0.06013531975001096,0.03527867252156138
1638746344513741000,8.875740966796876,0.08608136965036392,0.009989259899035095,0.022753172143176195
1638746344523762000,8.885761962890625,0.12678455143868922,-0.03430361694432795,0.0021620003394782544
1638746344533783800,8.89578369140625,0.1292091482371092,-0.062359498605504625,-0.017901202067360282
1638746344543806000,8.905805908203124,0.1096364327609539,-0.05652604321166873,-0.019071707151457666
1638746344553828000,8.915828125,0.10083645571172237,-0.03802110309749841,-0.01747676611021161
1638746344563850000,8.92585009765625,0.07887363022863865,-0.013534019833803175,0.002131970527395606
1638746344573870800,8.935870849609374,0.10195581513047218,0.010293868868798017,0.003794789173081517
1638746344583893000,8.94589306640625,0.09449731581807136,0.022432196560502052,-0.0008538403503596783
1638746344593915000,8.955914794921876,0.09416706095039844,0.020487492233514783,0.014779489850252866
1638746344603937000,8.96593701171875,0.07780570873618126,0.005258212789148092,0.011077712722867727
1638746344613959200,8.975959228515626,0.06878244432508945,0.0038202889405190943,0.010015271123126149
1638746344623980000,8.98597998046875,0.07665946131050587,0.006611527094244956,0.009779489605873822
1638746344634002000,8.996001953125,0.10056348398923873,-0.0018823066152632234,0.0056266077101230615
1638746344644023800,9.00602392578125,0.11714753904342651,-0.024001857030019162,0.004736307806894183
1638746344654046000,9.0160458984375,0.10501637174487113,-0.03568681493103504,0.012974632385373115
1638746344664068000,9.026068115234375,0.06968786873221397,-0.02439918578453362,0.006718421534821391
1638746344674090000,9.036090087890624,0.046778117787837976,0.004663900157809257,-0.00032557869255542754
1638746344684110800,9.04611083984375,0.06575169832706451,0.01634834660217166,-0.007274009590968489
1638746344694133000,9.056133056640626,0.09430150098502635,0.04044343487359583,-0.006453267792612314
1638746344704155000,9.06615478515625,0.11162848336100578,0.026905980973690746,-0.026658362888172266
1638746344714176800,9.0761767578125,0.10740239009857178,0.028128289310261605,-0.0025330256089568137
1638746344724199200,9.08619921875,0.09056699063181876,0.008954510023817419,0.0010191869799047709
1638746344734220000,9.096219970703125,0.06983925990164279,0.017296879498660562,0.02160568260848522
1638746344744242000,9.106241943359375,0.09043313511908053,0.021976050290837882,0.019926862676069138
1638746344754263800,9.116263916015624,0.11719488531649112,0.020862974482402204,0.031102775076404212
1638746344764286000,9.126285888671875,0.1272480772972107,0.006697671007737517,0.030879560779780147
1638746344774307800,9.136307861328126,0.11337269667983055,0.01636529773697257,0.026373408466950056
1638746344784329000,9.146328857421874,0.08723813847005367,0.004867386840656399,0.023291297607868907
1638746344794350800,9.156350830078125,0.07980009742379188,0.028217721159383653,0.019632409774139523
1638746344804373000,9.166373046875,0.08445522975325584,0.029688159038126466,0.01441957049667835
1638746344814395000,9.176394775390625,0.08534837920069693,0.03612878654487431,-0.0007457038007676601
1638746344824416800,9.186416748046875,0.10075871430039406,0.024021803839504717,-0.006892243731766939
1638746344834438000,9.19643798828125,0.09774959561228752,0.028537381567806004,-0.009910130248218775
1638746344844460000,9.2064599609375,0.0809977827757597,0.011520488054305314,-0.03221767751574516
1638746344854482000,9.21648193359375,0.07815291473865509,0.015583645839989184,-0.040897608381882306
1638746344864503800,9.22650390625,0.08128419850170612,0.005194061511754989,-0.04408566383346915
1638746344874526000,9.23652587890625,0.09431202237904071,0.011046806127950549,-0.04321889093630016
1638746344884547800,9.2465478515625,0.10642390045523643,0.00372223539352417,-0.03644019058160484
1638746344894569000,9.25656884765625,0.10104454550445079,-0.004396700588986277,-0.023371815498173236
1638746344904590800,9.2665908203125,0.07050795294344425,-0.0046310208015143866,-0.02193681425899267
1638746344914613000,9.276613037109374,0.05254559527337551,0.0024469547607004643,-0.008953560175746679
1638746344924635000,9.286634765625,0.07244739657342433,0.02380304652228951,-0.0028625498242676258
1638746344934656800,9.29665673828125,0.09175590815544128,0.018820289673656225,0.007332534845173358
1638746344944678100,9.30667822265625,0.10225625938177108,-0.0010143646743148566,0.018486746870353815
1638746344954700000,9.316699951171875,0.12490122191011906,0.0007844283759593963,0.016254311643168328
1638746344964722000,9.326721923828124,0.13826046969890593,-0.009663023619353771,0.013952829767763613
1638746344974743800,9.336743896484375,0.12890578137636183,-0.005084682853147387,0.016123232609406114
1638746344984766000,9.346765869140626,0.09846738849282265,0.004995616330206394,0.00857997762300074
1638746344994787000,9.356787109375,0.10328560242950915,0.016824878072738646,0.0017740239351987839
1638746345004809000,9.36680908203125,0.08491641752421855,0.039328094042837616,0.0067610185675323
1638746345014831000,9.3768310546875,0.07805413053929805,0.022668124208226798,0.02506868254393339
1638746345024853000,9.38685302734375,0.06848784529268741,0.018820435804128646,0.02810278954282403
1638746345034875000,9.396875,0.0773205555677414,0.010895414958521723,0.011716375952586532
1638746345044896000,9.40689599609375,0.08612754687964916,0.0252942349281162,0.0037269846338778734
1638746345054918100,9.416918212890625,0.10363865365087985,0.0212079154625535,-0.022145488573610782
1638746345064940000,9.42693994140625,0.10934592538177966,0.020622443724796175,-0.02080839475095272
1638746345074962000,9.4369619140625,0.10384206726849078,0.008181991281360388,-0.030438685144484043
1638746345084984000,9.446984130859375,0.1011748938858509,0.013240443714708089,-0.02968757451623678
1638746345095005000,9.4570048828125,0.08772153807282447,0.016048779133707284,-0.02579655842706561
1638746345105027000,9.467027099609375,0.07783610387444495,0.03596212474107742,-0.018551409604400396
1638746345115049000,9.477049072265626,0.08200374494791031,0.046437779917567965,-0.0033921266563236713
1638746345125071000,9.487071044921874,0.08182020507454872,0.029443901953473687,0.004207461627200246
1638746345135093000,9.497093017578125,0.09226444219946861,-0.004979834239184856,0.006560673689842224
1638746345145115000,9.507114990234374,0.10184417144954204,-0.013637553273513913,0.0015605273149907589
1638746345155135700,9.5171357421875,0.09931962140798568,-0.015074235013127326,-0.030428309880942105
1638746345165158100,9.527158203125,0.07223463060557841,-0.0021069822166115046,-0.05964512508027255
1638746345175180000,9.537179931640624,0.06352583897113799,-0.0035013591844588517,-0.06633475891202688
1638746345185202000,9.547201904296875,0.0669113897562027,0.024747853091731668,-0.0550818357527256
1638746345195224000,9.55722412109375,0.07313420979380607,0.02906447418183088,-0.03386252211332321
1638746345205245000,9.567244873046874,0.08785773167312144,0.019402546541020273,-0.02426189620569348
1638746345215266800,9.577266845703125,0.08774725703597068,0.004951411862298846,-0.0201304954893887
1638746345225289000,9.5872890625,0.08642097686827183,0.006020210137590766,-0.015512480299919843
1638746345235311000,9.59731103515625,0.08466741119921208,0.003983443612977862,0.0073530661765486
1638746345245333000,9.6073330078125,0.10047872831523418,-0.007898059773445128,0.026616350377351043
1638746345255353900,9.617353759765624,0.12979834630191325,-0.018369696361944077,0.045396234975382685
1638746345265375700,9.627375732421875,0.13671265573501587,-0.021186068956926464,0.044167716093733905
1638746345275398000,9.63739794921875,0.08899988744556904,-0.01525039529763162,0.024180428467318413
1638746345285420000,9.647419921875,0.04589432069063187,0.009819017898663877,0.017413345485180615
1638746345295442000,9.65744189453125,0.03759177176952362,0.010120046671852468,0.018191928642243147
1638746345305463000,9.667463134765624,0.07042845796644687,0.02314845507107675,-0.0017995967678725718
1638746345315485000,9.67748486328125,0.10802490591108799,0.006227715408429503,-0.02575147717632353
1638746345325506800,9.6875068359375,0.12584990093708037,-0.011053308933973311,-0.04790273790359497
1638746345335529000,9.697529052734374,0.09457271914184093,-0.012035597969591617,-0.061804275875538585
1638746345345551000,9.707551025390625,0.053987610775232314,0.004766629879921674,-0.05784793946519494
1638746345355573000,9.717572998046874,0.03510404660701751,0.03434833286888897,-0.019369155728071928
1638746345365593900,9.72759375,0.04243278205990791,0.036706805628538126,0.010301613783836365
1638746345375616000,9.737615966796875,0.06487608453631401,0.03726911568641662,0.026683058938011525
1638746345385638000,9.747637939453124,0.0840951642692089,0.04858202540464699,-0.006279664791375398
1638746345395660000,9.757659912109375,0.09176116885244846,0.04929536130577326,-0.04091792051754892
1638746345405682000,9.767681884765626,0.08894728047549724,0.054055196118727326,-0.05511347300000488
1638746345415703000,9.777703125,0.06920914530456065,0.056774976471439004,-0.0444349887277931
1638746345425725000,9.787724853515625,0.0744751030087471,0.030772301013022658,-0.044057825978472825
1638746345435746800,9.797746826171876,0.1021685810983181,0.008362535480037332,-0.02535626731365919
1638746345445769000,9.80776904296875,0.09663082071542739,-0.014561097859218716,-0.0038549218624830245
1638746345455791000,9.817791015625,0.09290741627812385,-0.034889454008266325,-0.007070303712412715
1638746345465812000,9.82781201171875,0.08625029647648334,-0.04263181176334619,0.0025577216587960717
1638746345475833900,9.837833740234375,0.11031447815299034,-0.031655878914520146,0.009887699220702052
1638746345485856000,9.84785595703125,0.12032090838253498,-0.03168444742187857,0.013058365146070719
1638746345495878000,9.8578779296875,0.13200316286981106,-0.03363791957721114,0.024982903956621883
1638746345505900000,9.867900146484375,0.12256079626381397,-0.03261610224880278,0.0279041251655668
1638746345515921000,9.8779208984375,0.09961772757172584,-0.03300152136981487,0.029788331476971505
1638746345525942800,9.88794287109375,0.06603694500923156,-0.03043941579684615,0.009617503977194427
1638746345535964700,9.897964599609375,0.045286417925357814,-0.010404489636421203,-0.013139394493028521
1638746345545986800,9.90798681640625,0.05592062466442585,-0.006327887847274541,-0.02910875171497464
1638746345556008700,9.9180087890625,0.07418050397634506,-0.02629530172944069,-0.035382863548398015
1638746345566029800,9.92802978515625,0.12314999432861805,-0.04203969108909368,-0.022810820614546538
1638746345576052000,9.938052001953125,0.1546323433071375,-0.03518149575740099,-0.030497502659633753
1638746345586073900,9.948073974609375,0.16611936748325823,-0.015004238516837357,-0.010281155517697333
1638746345596095700,9.958095703125,0.1523567995905876,0.02409333470575511,0.017789046929776668
1638746345606117600,9.96811767578125,0.10750409690737724,0.04813201661482453,0.034795419049263
1638746345616139800,9.978139892578126,0.07435469149947166,0.056716158956289286,0.053778498069196934
1638746345626161000,9.988160888671874,0.038503041395545,0.03949059112817049,0.04595335740149021
1638746345636182800,9.998182861328125,0.024048399585485457,0.0405269484385848,0.03991517321579158
1638746345646205000,10.008204833984376,0.013003273957967758,0.025867431706190106,-0.028423765125498174
1638746345656226800,10.018226806640625,0.04082183973193168,-0.003025996757671237,-0.09653598203882574
1638746345666248700,10.028248779296876,0.14296996256411074,-0.048359760956093664,-0.10241093848682939
1638746345676269800,10.038269775390624,0.2609048525929451,-0.13304741122573613,-0.055790203217789526
1638746345686292000,10.0482919921875,0.3372667922616005,-0.1338390730600804,0.03143734079301357
1638746345696313900,10.05831396484375,0.3133189304411411,-0.012249094589799642,0.15122092742845414
1638746345706335700,10.068335693359375,0.1602531057983637,0.04915843705311417,0.2608873900014907
1638746345716358000,10.07835791015625,0.007523965764045715,0.06710851976349949,0.35539909967109556
1638746345726379000,10.08837890625,-0.06562953325212001,0.13032733861207962,0.32841764230839904
1638746345736401000,10.09840087890625,-0.10192191286087035,0.16632592290602624,0.167143742094934
1638746345746422800,10.1084228515625,-0.10829787763357161,0.17230207470618186,-0.08198788979165256
1638746345756445000,10.11844482421875,-0.00948269861638546,0.13675963668189942,-0.3316610812090337
1638746345766466800,10.128466796875,0.11802549092173575,0.04483202522136271,-0.5447030164521187
1638746345776488000,10.138488037109376,0.1939835259646177,-0.019464213600382207,-0.6510542169973254
1638746345786509800,10.148509765625,0.15649813717901706,0.005151391413807869,-0.5590682994782924
1638746345796532000,10.158531982421875,0.04729658870398998,0.03522058565877378,-0.2682534617900848
1638746345806553900,10.168553955078124,-0.011162614527344702,0.02846972315907478,0.003826499485597014
1638746345816575700,10.17857568359375,-0.020006430718302725,0.03198664523884654,0.21342771969027816
1638746345826596900,10.188596923828126,0.022489479705691335,0.03610533260405063,0.29909583236463366
1638746345836619000,10.198618896484374,0.09675064770281314,0.049684799014776945,0.30249351197890934
1638746345846641000,10.208640869140625,0.16244272479712962,0.03345591407380998,0.26914412701949475
1638746345856662800,10.218662841796874,0.22240298024117947,-0.013168912848457693,0.21713022747002542
1638746345866685000,10.228684814453125,0.21969664389193055,-0.05622055745907128,0.1354248809468001
1638746345876706800,10.238706787109376,0.1445405728816986,-0.07766074730753898,0.04753237022124231
1638746345886728000,10.24872802734375,0.057629182147979734,-0.10314677848070859,-0.03957001303993165
1638746345896749800,10.258749755859375,0.018115502405166625,-0.08767375340834259,-0.09259981163367628
1638746345906772000,10.26877197265625,0.03730769413113594,-0.04988784730620682,-0.10536197031214832
1638746345916793900,10.2787939453125,0.09449731581807136,-0.01882277389168739,-0.07767156096249818
1638746345926815700,10.288815673828125,0.15591361528933048,-0.008945230738818645,-0.026268267592042684
1638746345936836600,10.298836669921876,0.1705430291444063,0.012896598713099956,0.009555909983068704
1638746345946859000,10.30885888671875,0.1345230367362499,0.018506912875548003,0.028571064641699194
1638746345956881000,10.318880859375,0.07551379840672015,0.024674203333631156,0.03951411813423037
1638746345966902800,10.32890283203125,0.05534194799363613,0.031635859039798375,0.04830927287787199
1638746345976925000,10.338925048828125,0.06741057144999504,0.0263122528642416,0.048327539186924694
1638746345986945800,10.34894580078125,0.10838380235135554,-0.0018652824152261018,0.0501678332913667
1638746345996967700,10.3589677734375,0.13154665127396584,-0.020758491194620726,0.05168488679081201
1638746346006989800,10.36898974609375,0.12444354127049445,-0.022798107263445853,0.02964132422171533
1638746346017012000,10.379011962890624,0.09145254129469395,-0.01926744891926646,0.010909224288165568
1638746346027033900,10.389033935546875,0.07877776863873004,0.009301277634873985,-0.013865662940964103
1638746346037054700,10.3990546875,0.08002104669809341,0.040456221289932724,-0.03558905364498496
1638746346047076900,10.409076904296874,0.08542612061202526,0.04362301475778222,-0.04567147172018885
1638746346057098800,10.4190986328125,0.0997854853540659,0.05049311972297728,-0.052343716025725004
1638746346067121000,10.429120849609374,0.07367956871688365,0.05575871210098266,-0.05387757452949881
1638746346077142800,10.439142822265625,0.05846329488456249,0.052194516813382504,-0.05971044540144503
1638746346087164000,10.449163818359375,0.054769701063632964,0.0510286148391664,-0.05804141621068119
1638746346097185800,10.459185791015624,0.07218494624495506,0.0403939697086811,-0.05001213127300143
1638746346107207700,10.469207763671875,0.09817337398231028,0.01784969107583165,-0.03886624868474901
1638746346117229800,10.479229736328126,0.1064256540209055,-0.004469108238071203,-0.028003274691104887
1638746346127252000,10.489251953125,0.08789104942083359,-0.02448467211090028,-0.025480916606634853
1638746346137272800,10.49927294921875,0.08509995739758014,-0.0249904296759516,-0.0030728315740823743
1638746346147294700,10.509294677734376,0.09895780235826969,-0.0060255438998341555,0.0009549626372754573
1638746346157316900,10.51931689453125,0.10159633416831493,0.010109744473546742,0.0029459903240203855
1638746346167338800,10.5293388671875,0.10541910732686519,0.022270868518948553,0.02131101051084697
1638746346177361000,10.53936083984375,0.10099018496870994,0.0205760472998023,0.023619360518455503
1638746346187383000,10.549383056640625,0.08695932152867317,0.02578421040214598,0.017572335439175368
1638746346197404000,10.55940380859375,0.08427110535800457,0.013214286360144614,0.008205956678837537
1638746346207425800,10.56942578125,0.08126140214800834,0.02313683769851923,-0.002720657135546207
1638746346217447700,10.57944775390625,0.10215162996351718,0.014358999415859578,-0.0038142975911498065
1638746346227469800,10.5894697265625,0.11062895092964171,0.010548355086520314,-0.002408230185508728
1638746346237492000,10.599491943359375,0.11614683756828308,-0.002455649523809552,-0.008453501699119806
1638746346247512800,10.609512939453126,0.10535422539710998,-0.0027012217827141285,0.002905804444104433
1638746346257534700,10.61953466796875,0.08468377781212329,-0.010822568918019533,-0.008004954214021563
1638746346267556900,10.629556884765625,0.07315759066939354,0.0088861940279603,-0.003011895167082548
1638746346277578800,10.639578857421874,0.085271806833148,0.024445874470472334,0.0060443947307765485
1638746346287600600,10.6496005859375,0.10052782815396785,0.025639029777795076,0.008351064237952233
1638746346297621800,10.659621826171875,0.11131225701868533,0.008918927253782748,0.005219999670609832
1638746346307644000,10.669643798828124,0.103671971398592,0.013131065056100486,0.005137582084164023
1638746346317665800,10.679665771484375,0.08406418460905551,0.0006689122375100851,-0.004093552923947572
1638746346327687700,10.689687744140626,0.05918927107155323,0.009570157704129814,0.0024530191753059623
1638746346337709800,10.699709716796875,0.08565642223656177,0.005898702649772167,0.005442337184399366
1638746346347731000,10.70973095703125,0.10749474455714225,0.007194587679207325,0.004085442682728171
1638746346357752800,10.7197529296875,0.11497545570135116,-0.011230199870839714,0.003906944310665131
1638746346367774700,10.729774658203125,0.10749649812281131,-0.010573562593013048,0.0010025281060487032
1638746346377796900,10.739796875,0.07920622318387031,-0.003986220091953874,-0.001039791376516223
1638746346387818800,10.74981884765625,0.07935235365629195,0.00813530259542167,-0.008111410263180732
1638746346397840000,10.75983984375,0.08937339693307876,0.00628339111842215,-0.015704568805918098
1638746346407862000,10.769862060546876,0.11286357811391352,0.020183979242295026,-0.013956775290518999
1638746346417884000,10.7798837890625,0.1068733977884054,0.007390475577488541,-0.023514731100201604
1638746346427905800,10.78990576171875,0.09818389537632465,0.010566183004155754,-0.010886500999704002
1638746346437927700,10.799927734375,0.08184124786257743,0.003726107851043343,-0.020951091157272457
1638746346447949000,10.809948974609375,0.06759060419201851,0.016289748282730578,-0.01254281683936715
1638746346457971000,10.819970947265626,0.07864800477921963,0.024450258384644985,-0.005914703936502337
1638746346467992800,10.829992919921875,0.09644552727639674,0.029095673037692903,-0.012603387920185923
1638746346478015000,10.840014892578125,0.11229717640280723,0.010252952336519955,-0.005376213145628571
1638746346488036900,10.850036865234374,0.11963877133727073,0.0036261546079069374,-0.0015664455991238355
1638746346498057700,10.8600576171875,0.08584639185070991,-0.008487477033957838,-0.014576149297878146
1638746346508079600,10.87007958984375,0.07477437821626663,0.006475260428711772,-0.012763108526542782
1638746346518101800,10.880101806640624,0.07821487405896187,0.0006657704323530197,-0.014848828759416937
1638746346528123600,10.89012353515625,0.09872457812428474,0.015129326201230286,-0.020172581065446137
1638746346538145500,10.9001455078125,0.09979074605107306,-0.001237067514285445,-0.026291575402393935
1638746346548167400,10.91016748046875,0.10161386982500553,0.005352320813387632,-0.011896774020791053
1638746346558188800,10.920188720703125,0.09938099620640277,0.00885506823733449,-0.013192220658808946
1638746346568210700,10.930210693359374,0.0729021546036005,0.014905600447952746,-0.018735314803943037
1638746346578232600,10.940232666015625,0.07481704831421375,0.0352409708596766,-0.022693258649483322
1638746346588254700,10.950254638671876,0.08226151910126209,0.04107420705780387,-0.013712956597283481
1638746346598276600,10.960276611328124,0.09959083956480026,0.030218904913961887,-0.006953472399711609
1638746346608297500,10.97029736328125,0.10962941849827766,0.009357245605811476,-0.000872106659412384
1638746346618319600,10.980319580078126,0.1121896243751049,0.002501169165968895,-0.008612930044531822
1638746346628341800,10.990341796875,0.19290975925326345,0.01885799133554101,-0.0034486060839146373
1638746346638363600,11.00036376953125,-0.001603343543410301,-0.05841397585012018,0.02181428385786712
1638746346648385500,11.010385498046874,0.040727147185802455,0.03760455818586051,0.004656958960369229
1638746346658406400,11.020406494140625,0.07394961782991885,0.006675093849748372,0.019857304571196437
1638746346668428500,11.030428466796875,0.11529402013123034,-0.004437397925555706,0.013906579473242163
1638746346678450700,11.04045068359375,0.11577625069022178,0.00841134305782616,0.015030688132345675
1638746346688472600,11.05047265625,0.08809972373545169,0.0006973346143960953,-0.001886179072782397
1638746346698494700,11.06049462890625,0.0765747056365013,0.015224164877831936,-0.006692191115021705
1638746346708515600,11.070515625,0.10425941589772701,0.012962211295217275,-0.011177739031240343
1638746346718537500,11.080537353515625,0.10182605127096175,0.017098872708529233,-0.01019815340936184
1638746346728559600,11.0905595703125,0.11011398714482784,0.00468194727115333,-0.0098137572016567
1638746346738581800,11.100581787109375,0.09441197562217712,-0.0008656038533896207,-0.003568067745119333
1638746346748603600,11.110603759765626,0.07347440153360367,-0.004054609153047204,-0.017397344198450446
1638746346758624500,11.12062451171875,0.07886193979084491,0.011446838296204805,-0.011164587288722395
1638746346768646400,11.130646484375,0.09594576106071472,0.016508505599945784,-0.009543708088621497
1638746346778668500,11.14066845703125,0.10360475138127803,0.014605959914252162,-0.003645663025975227
1638746346788690700,11.150690673828125,0.10154197363257407,0.007886442400887608,-0.0011506313398480415
1638746346798712600,11.160712646484376,0.10187105945646763,0.004968801388517022,-0.008953706306219101
1638746346808733400,11.1707333984375,0.07076455805301665,-0.007761939238384366,-0.016684665884450077
1638746346818755600,11.180755615234375,0.06686112087368964,0.01949899265281856,-0.01875591920055449
1638746346828777500,11.190777587890626,0.07971884888112545,0.01844626872949302,-0.026825682279095053
1638746346838799400,11.20079931640625,0.1008130748361349,0.019332550044730303,-0.014172098541632294
1638746346848821800,11.21082177734375,0.11187456707656383,-0.0009260288037359714,-0.011673925050348043
1638746346858842600,11.220842529296876,0.09212240338027476,-0.0027878040876239537,-0.00022036475241184232
1638746346868864500,11.230864501953125,0.07731178773939609,0.0005015928465873003,-0.004368862733989954
1638746346878886700,11.24088671875,0.07744505873024463,0.02171126187480986,-0.004157411940395832
1638746346888908500,11.250908447265624,0.08027940537333488,0.0225607913762331,-0.002655629075318575
1638746346898930400,11.260930419921875,0.09809504804909229,0.028254326842725275,0.0061279082957655185
1638746346908952600,11.27095263671875,0.11128887614309788,0.0038160511568188665,-0.002739727162197232
1638746346918973700,11.2809736328125,0.09498714516162872,0.014321955341100692,0.00024155367091298102
1638746346928995600,11.29099560546875,0.07821721214652061,0.011145882588252425,-0.017876652147993444
1638746346939017500,11.301017578125,0.06188567054867744,0.029402035573124884,-0.0250100111592561
1638746346949039600,11.31103955078125,0.07383329797387123,0.013055223340913653,-0.025768501376360654
1638746346959060700,11.321060791015626,0.08908639668524265,0.02826009899638593,-0.015322072294354437
1638746346969082600,11.33108251953125,0.09911094709336757,0.00638546325340867,-0.009976035091280937
1638746346979104500,11.3411044921875,0.10613397759795189,0.0020232494559139012,0.002906535096466541
1638746346989126700,11.351126708984374,0.07229775896966457,-0.0027539748832583425,-0.004478387523069977
1638746346999148500,11.3611484375,0.07153788051307201,0.010236951049789786,0.0014903116229921579
1638746347009170400,11.37117041015625,0.08663724996745586,0.0067893678791821,-0.0025732845541089774
1638746347019191600,11.381191650390624,0.0995411552041769,0.008376929331570863,0.006168094175681472
1638746347029213700,11.391213623046875,0.12157353879213333,0.0020987258449196816,0.007042173596471548
1638746347039235600,11.401235595703126,0.11398001492321491,-0.013181553134322165,0.0019332330849021672
1638746347049257500,11.411257568359375,0.07778525047004223,-0.006776508397608995,-0.015097688953951
1638746347059279600,11.421279541015625,0.07553601023852825,0.004357976013794541,-0.020326164191961288
1638746347069300700,11.43130078125,0.08615151227712631,0.010197057430818677,-0.013989070124924181
1638746347079322600,11.441322509765625,0.09991700277924537,0.010960077692568302,-0.01802877396978438
1638746347089344500,11.451344482421876,0.10528934346735477,0.011547376061230897,-0.007736804797127843
1638746347099366700,11.46136669921875,0.09585808277726172,0.015479527878388761,-0.006697232616320252
1638746347109388500,11.471388427734375,0.07188041034042834,0.012746230456978081,-0.018379998560249803
1638746347119409700,11.48140966796875,0.07543196534216404,0.014868191047012804,-0.010896218676120043
1638746347129431600,11.491431640625,0.07572831794023513,0.02300283605530858,-0.018501725243777037
1638746347139453700,11.50145361328125,0.09009703503251075,0.022911723705753683,-0.005684475377202034
1638746347149475600,11.5114755859375,0.1065431429207325,0.010556173066794872,-0.004141337588429451
1638746347159497500,11.52149755859375,0.10625438910722732,-0.005676072875037789,0.00324818814098835
1638746347169518600,11.5315185546875,0.08738602250814437,-0.0018961890101432798,0.0029694442648440598
1638746347179540700,11.541540771484375,0.0763134243518114,0.0026977877166122198,0.0012835370045155285
1638746347189562600,11.551562744140625,0.08378069149255753,0.013881445031985639,-0.0065539516881108284
1638746347199584500,11.56158447265625,0.0965127472937107,0.02543525083400309,0.0036492432225495573
1638746347209606700,11.571606689453125,0.11345043809115886,0.02262391974031925,-0.004056435783952475
1638746347219627500,11.58162744140625,0.11076689809560775,0.004857084642350674,-0.005390680062398314
1638746347229649700,11.591649658203124,0.0968266355484724,0.004164718464016914,-0.014898732315748928
1638746347239671600,11.601671630859375,0.08139291957318782,0.00915258987918496,-0.013903072341904044
1638746347249693700,11.611693603515626,0.07928747172653675,0.022264950234815478,-0.011086772812157869
1638746347259715600,11.621715576171875,0.0951402898967266,0.02413322832472622,-0.02025207604244351
1638746347269736400,11.631736328125,0.10307634359300136,0.02395721417069435,-0.013182283786684275
1638746347279758600,11.641758544921874,0.11101531989872455,0.002415755904838443,-0.004998904265835881
1638746347289780700,11.65178076171875,0.08828326360881328,0.0034276363611221313,-0.012509426026418805
1638746347299802600,11.661802734375,0.07795067016482353,-0.006825827432051301,-0.018516630551964043
1638746347309824500,11.671824462890624,0.07615618796348571,0.01145538692884147,-0.009497457794100045
1638746347319845600,11.681845703125,0.08618775263428688,0.00825681008324027,-0.0036491701573133466
1638746347329867500,11.691867431640626,0.09291618410646915,0.012496347349137068,-0.005306728105992078
1638746347339889400,11.701889404296875,0.11568097362220287,-0.004688815403357148,-0.014929419714957474
1638746347349911800,11.711911865234375,0.09521101704537868,-0.001371726744621992,-0.010652180787175893
1638746347359933700,11.72193359375,0.07904489514231682,-0.004124094192683696,-0.017353651187196374
1638746347369954600,11.73195458984375,0.0775555333673954,0.009114522891119121,-0.012869345379993319
1638746347379976400,11.7419765625,0.08683306480050086,0.012786489402130246,-0.004857449968531728
1638746347389998600,11.75199853515625,0.11094985344707965,0.02357983222566545,-0.0021411036819219587
1638746347400020500,11.7620205078125,0.11004501356184482,0.0027283289853483436,-0.014696049350500106
1638746347410042600,11.772042724609374,0.09449790033996104,0.015613602586835622,-0.006270239375904202
1638746347420063500,11.7820634765625,0.07519464945495129,0.007103183068707585,-0.014784019894897938
1638746347430085600,11.792085693359375,0.07055120756328105,0.015396306574344635,-0.0011601298205554484
1638746347440107500,11.802107421875,0.0834159498333931,0.01496975172534585,-0.006428864003717899
1638746347450129400,11.81212939453125,0.09825053087174891,0.019958353792876003,-0.0052374622620642184
1638746347460151600,11.822151611328126,0.11024375100433825,0.00590250204205513,-0.0069042264305055135
1638746347470172700,11.832172607421874,0.1024953288346529,0.005877002274617553,-0.003702288584038615
1638746347480194600,11.842194580078125,0.06494213550984859,0.0005808686278760433,-0.009975012177973985
1638746347490216400,11.852216552734374,0.061222238203883166,0.00394771471247077,-0.0108534024477005
1638746347500238600,11.862238525390625,0.08966974953114985,0.012426935374736785,-0.01025777464210987
1638746347510260700,11.8722607421875,0.1015016416221857,0.010465864434838294,-0.0034122195962816475
1638746347520281900,11.88228173828125,0.11229776092469691,-0.010622297105565667,-0.0032907121084630488
1638746347530303700,11.8923037109375,0.10528525181412696,-0.001334171213209629,-0.006027224400267005
1638746347540325600,11.90232568359375,0.07551555197238921,0.0007375935595482588,-0.003112944388762116
1638746347550347800,11.91234765625,0.0645884997665882,0.005078033916652202,-0.004053074783086776
1638746347560369700,11.92236962890625,0.08703530937433242,0.016116437542438505,-0.012754340698197484
1638746347570391600,11.9323916015625,0.09332476490736007,0.03309847893826663,-0.009487593987211584
1638746347580412700,11.94241259765625,0.10019114354550838,0.025272169226780532,-0.010027034626156091
1638746347590434800,11.952434814453126,0.09763152219057082,0.016076105532050133,-0.007292860421910881
1638746347600456700,11.962456787109375,0.08966741144359111,0.00789630620777607,-0.026788784334808587
1638746347610478600,11.972478515625,0.07064356202185154,0.022265607821941376,-0.0249310276389122
1638746347620500700,11.982500732421874,0.08394961831867695,0.012613836248964071,-0.019151713585108518
1638746347630521900,11.99252197265625,0.09471826509237288,0.012569120324403047,-0.007888999684154987
1638746347640543700,12.002543701171875,0.11132570102214813,0.004996273917332292,0.0018671090461313724
1638746347650565600,12.012565673828124,0.1133002159655094,-0.000660290539637208,0.00927943112924695
1638746347660587800,12.022587890625,0.08906535389721393,-0.006165683022886515,-0.008721431920304895
1638746347670609700,12.032609619140626,0.07035539273023605,-0.007105667286738753,0.0009031593848019837
1638746347680630800,12.042630859375,0.07245850248932838,0.00431260250210762,0.0011931553073227404
1638746347690652700,12.052652587890625,0.0898509513169527,0.006062149583175778,-0.0024818799436092374
1638746347700674800,12.0626748046875,0.1066343283355236,0.005002995919063687,-0.0095430505014956
1638746347710696700,12.07269677734375,0.11187222898900508,-0.006986570951715111,-0.01763122601956129
1638746347720718600,12.082718505859376,0.09419219539165496,0.0005994271978735923,-0.0137589876960963
1638746347730739700,12.09273974609375,0.07889408849477768,-0.0021229835033416745,-0.020487199972569942
1638746347740761900,12.102761962890625,0.07095394314527512,0.015168196906894445,-0.01647920644022524
1638746347750783700,12.11278369140625,0.09321838192343711,0.02646042916327715,-0.008403086686134337
1638746347760805600,12.1228056640625,0.11251578758955001,0.0171661657910794,0.001388677879422903
1638746347770827800,12.132827880859375,0.11460019264817237,0.0023820728309452534,-0.010677096032723784
1638746347780848600,12.1428486328125,0.09679740945398807,0.009502426230162382,-0.006650982321798801
1638746347790870800,12.152870849609375,0.06731354081630707,0.009112111738324165,-0.005759367244318127
1638746347800892700,12.162892578125,0.06656418375372886,0.018420111374929545,-0.003801803435757756
1638746347810914800,12.172914794921875,0.09230243612229823,0.01637954545803368,-0.009722864047810434
1638746347820936700,12.182936767578125,0.10444529385864734,0.01782017272040248,-0.016396861919015644
1638746347830957600,12.19295751953125,0.11509820529818535,0.013382774794846772,-0.0022445640563964844
1638746347840979700,12.202979736328125,0.08516951550245284,0.015274068434163927,-0.007101356437802314
1638746347851001900,12.213001953125,0.08202361869215964,0.004635112454742193,-0.013742255757004022
1638746347861023700,12.223023681640624,0.0727449182152748,0.02278977782651782,-0.01206350888982415
1638746347871045600,12.233045654296875,0.08352817803621292,0.025654227346926926,-0.014621668940037488
1638746347881066800,12.243066650390626,0.10941256087720394,0.03043218233846128,-0.002099383432045579
