time,seconds_elapsed,z,y,x
1638746335689527600,0.051527587890625,-0.4292144775390625,-0.908477783203125,-0.1393585205078125
1638746335699549700,0.0615498046875,-0.4330291748046875,-0.8892059326171875,-0.17071533203125
1638746335709571600,0.071571533203125,-0.4369659423828125,-0.916290283203125,-0.150299072265625
1638746335719593500,0.081593505859375,-0.42706298828125,-0.93865966796875,-0.128631591796875
1638746335729615600,0.09161572265625,-0.4082183837890625,-0.9239959716796875,-0.1016387939453125
1638746335739637500,0.101637451171875,-0.3926239013671875,-0.8858795166015625,-0.086090087890625
1638746335749659600,0.11165966796875,-0.3881683349609375,-0.8497467041015625,-0.137969970703125
1638746335759680500,0.121680419921875,-0.399322509765625,-0.85589599609375,-0.1680145263671875
1638746335769702700,0.13170263671875,-0.406463623046875,-0.879241943359375,-0.1188812255859375
1638746335779724500,0.141724609375,-0.4022064208984375,-0.8994903564453125,-0.072479248046875
1638746335789746400,0.151746337890625,-0.4004974365234375,-0.8984832763671875,-0.055389404296875
1638746335799768600,0.1617685546875,-0.413970947265625,-0.8847198486328125,-0.0615234375
1638746335809790700,0.171790771484375,-0.4449310302734375,-0.8863372802734375,-0.096221923828125
1638746335819811600,0.1818115234375,-0.4722442626953125,-0.8951568603515625,-0.1292266845703125
1638746335829833500,0.19183349609375,-0.4865570068359375,-0.89141845703125,-0.1593475341796875
1638746335839855600,0.201855712890625,-0.4822235107421875,-0.856689453125,-0.167083740234375
1638746335849877500,0.21187744140625,-0.4691162109375,-0.8304290771484375,-0.135711669921875
1638746335859899600,0.221899658203125,-0.467071533203125,-0.8346405029296875,-0.102203369140625
1638746335869921800,0.231921875,-0.49169921875,-0.8660430908203125,-0.085205078125
1638746335879942700,0.241942626953125,-0.532684326171875,-0.9096527099609375,-0.06597900390625
1638746335889964500,0.251964599609375,-0.5750579833984375,-0.92071533203125,-0.062744140625
1638746335899986400,0.261986328125,-0.586090087890625,-0.883148193359375,-0.085906982421875
1638746335910008600,0.272008544921875,-0.5442047119140625,-0.811614990234375,-0.1112823486328125
1638746335920030700,0.28203076171875,-0.48773193359375,-0.8545989990234375,-0.0899505615234375
1638746335930052600,0.292052490234375,-0.4512786865234375,-0.893585205078125,-0.0869293212890625
1638746335940074800,0.30207470703125,-0.4427642822265625,-0.900543212890625,-0.0990142822265625
1638746335950095600,0.312095703125,-0.4546356201171875,-0.887847900390625,-0.13458251953125
1638746335960117500,0.322117431640625,-0.471832275390625,-0.853668212890625,-0.1976318359375
1638746335970139400,0.332139404296875,-0.462646484375,-0.8014984130859375,-0.2256927490234375
1638746335980161800,0.342161865234375,-0.4476776123046875,-0.7978668212890625,-0.2021636962890625
1638746335990183700,0.35218359375,-0.4265289306640625,-0.8623809814453125,-0.15631103515625
1638746336000205600,0.36220556640625,-0.407745361328125,-0.9679412841796875,-0.0845184326171875
1638746336010226400,0.372226318359375,-0.3777313232421875,-1.0344085693359375,-0.057098388671875
1638746336020248600,0.38224853515625,-0.3726348876953125,-1.0287628173828125,-0.053802490234375
1638746336030270500,0.3922705078125,-0.38641357421875,-0.987945556640625,-0.050689697265625
1638746336040292600,0.402292724609375,-0.4105987548828125,-0.9131927490234375,-0.108428955078125
1638746336050314800,0.412314697265625,-0.4306793212890625,-0.81561279296875,-0.1675567626953125
1638746336060336600,0.422336669921875,-0.4601287841796875,-0.7372894287109375,-0.21533203125
1638746336070357500,0.432357421875,-0.4738922119140625,-0.7333526611328125,-0.216796875
1638746336080379400,0.44237939453125,-0.461578369140625,-0.7935638427734375,-0.1753082275390625
1638746336090401500,0.452401611328125,-0.4182891845703125,-0.9011383056640625,-0.1016082763671875
1638746336100423700,0.462423583984375,-0.379058837890625,-0.9859161376953125,-0.05889892578125
1638746336110445600,0.472445556640625,-0.2652130126953125,-1.038238525390625,-0.1266326904296875
1638746336120467700,0.4824677734375,-0.26416015625,-1.0572509765625,-0.1455078125
1638746336130488600,0.492488525390625,-0.3218841552734375,-0.9347381591796875,-0.2005615234375
1638746336140510500,0.502510498046875,-0.3124847412109375,-0.8468170166015625,-0.2319183349609375
1638746336150532600,0.51253271484375,-0.296112060546875,-0.8756256103515625,-0.2720184326171875
1638746336160554800,0.5225546875,-0.3542938232421875,-0.9119415283203125,-0.33734130859375
1638746336170576600,0.53257666015625,-0.42864990234375,-0.95294189453125,-0.3421630859375
1638746336180598500,0.5425986328125,-0.4604949951171875,-1.006072998046875,-0.3888397216796875
1638746336190619400,0.552619384765625,-0.4591827392578125,-1.0599822998046875,-0.6200714111328125
1638746336200641500,0.5626416015625,-0.540802001953125,-1.0316925048828125,-0.697052001953125
1638746336210663700,0.57266357421875,-0.5660400390625,-1.0034637451171875,-0.7266693115234375
1638746336220685600,0.582685546875,-0.5007476806640625,-1.0336456298828125,-0.73004150390625
1638746336230707700,0.592707763671875,-0.37030029296875,-1.060455322265625,-0.671966552734375
1638746336240729600,0.6027294921875,-0.24090576171875,-1.04034423828125,-0.6102294921875
1638746336250751500,0.61275146484375,-0.306396484375,-0.975616455078125,-0.6906585693359375
1638746336260772400,0.6227724609375,-0.3316802978515625,-0.9277496337890625,-0.661865234375
1638746336270794800,0.632794677734375,-0.340057373046875,-0.867828369140625,-0.62274169921875
1638746336280816600,0.642816650390625,-0.3797760009765625,-0.7858734130859375,-0.58782958984375
1638746336290838500,0.652838623046875,-0.436859130859375,-0.7317962646484375,-0.5461578369140625
1638746336300860700,0.662860595703125,-0.4822845458984375,-0.724090576171875,-0.5079803466796875
1638746336310882600,0.672882568359375,-0.46490478515625,-0.7120208740234375,-0.49871826171875
1638746336320903400,0.6829033203125,-0.4178619384765625,-0.739166259765625,-0.494232177734375
1638746336330925600,0.692925537109375,-0.4198150634765625,-0.7467498779296875,-0.54888916015625
1638746336340947700,0.70294775390625,-0.4901580810546875,-0.6927032470703125,-0.6300811767578125
1638746336350969600,0.712969482421875,-0.535125732421875,-0.6627655029296875,-0.6147308349609375
1638746336360991500,0.722991455078125,-0.48553466796875,-0.6789398193359375,-0.5273590087890625
1638746336371013600,0.733013671875,-0.45159912109375,-0.6524200439453125,-0.4778289794921875
1638746336381034500,0.743034423828125,-0.4301300048828125,-0.5762481689453125,-0.3961181640625
1638746336391056600,0.753056640625,-0.412139892578125,-0.4858856201171875,-0.26708984375
1638746336401078800,0.763078857421875,-0.3662872314453125,-0.423858642578125,-0.15625
1638746336411100700,0.7731005859375,-0.34063720703125,-0.4327239990234375,-0.1380462646484375
1638746336421122600,0.78312255859375,-0.37744140625,-0.4785614013671875,-0.26373291015625
1638746336431144400,0.79314453125,-0.4281768798828125,-0.5154571533203125,-0.4009552001953125
1638746336441165600,0.80316552734375,-0.4994049072265625,-0.5098419189453125,-0.415069580078125
1638746336451187700,0.813187744140625,-0.5773773193359375,-0.4639434814453125,-0.3285980224609375
1638746336461209600,0.823209716796875,-0.63983154296875,-0.3968505859375,-0.1618194580078125
1638746336471231700,0.833231689453125,-0.7089080810546875,-0.3442535400390625,0.017242431640625
1638746336481253600,0.843253662109375,-0.757080078125,-0.3589630126953125,-0.037445068359375
1638746336491275300,0.853275146484375,-0.75732421875,-0.4186859130859375,-0.27630615234375
1638746336501296400,0.86329638671875,-0.733001708984375,-0.4521331787109375,-0.445770263671875
1638746336511318500,0.873318603515625,-0.7179412841796875,-0.43450927734375,-0.4787750244140625
1638746336521340400,0.88334033203125,-0.703094482421875,-0.3827056884765625,-0.4372406005859375
1638746336531362300,0.8933623046875,-0.6690521240234375,-0.3157806396484375,-0.365966796875
1638746336541384200,0.90338427734375,-0.64013671875,-0.25030517578125,-0.2588043212890625
1638746336551406300,0.91340625,-0.616973876953125,-0.1890869140625,-0.1324462890625
1638746336561427500,0.923427490234375,-0.5804290771484375,-0.1442413330078125,-0.04473876953125
1638746336571449300,0.933449462890625,-0.567047119140625,-0.108489990234375,-0.023529052734375
1638746336581471500,0.943471435546875,-0.572418212890625,-0.08477783203125,-0.01654052734375
1638746336591493400,0.953493408203125,-0.6160736083984375,-0.0785675048828125,0.030487060546875
1638746336601515300,0.963515380859375,-0.6552886962890625,-0.053924560546875,0.0860748291015625
1638746336611537200,0.973537109375,-0.702972412109375,-0.004302978515625,0.1028900146484375
1638746336621558500,0.98355859375,-0.7841644287109375,0.040191650390625,0.14599609375
1638746336631580400,0.993580322265625,-0.9492645263671875,0.0576019287109375,0.13201904296875
1638746336641602300,1.003602294921875,-1.1698150634765625,0.06927490234375,0.2343597412109375
1638746336651624400,1.01362451171875,-1.17999267578125,0.0226287841796875,0.4083404541015625
1638746336661646300,1.023646240234375,-1.1728973388671875,-0.09075927734375,0.3902587890625
1638746336671668200,1.033668212890625,-1.1776123046875,-0.1619720458984375,0.3918914794921875
1638746336681689300,1.043689453125,-1.208831787109375,-0.1634368896484375,0.4093017578125
1638746336691711500,1.05371142578125,-1.2680816650390625,-0.159423828125,0.37591552734375
1638746336701733400,1.0637333984375,-1.3025970458984375,-0.179901123046875,0.356903076171875
1638746336711755300,1.07375537109375,-1.339874267578125,-0.1768341064453125,0.4259796142578125
1638746336721777400,1.08377734375,-1.349517822265625,-0.1658782958984375,0.545806884765625
1638746336731799300,1.09379931640625,-1.3061065673828125,-0.149078369140625,0.5873260498046875
1638746336741821200,1.1038212890625,-1.2481689453125,-0.1268310546875,0.553466796875
1638746336751842300,1.11384228515625,-1.2030487060546875,-0.1237030029296875,0.501800537109375
1638746336761864400,1.123864501953125,-1.1989898681640625,-0.131805419921875,0.4510650634765625
1638746336771886300,1.13388623046875,-1.2338104248046875,-0.1262359619140625,0.39990234375
1638746336781908200,1.143908203125,-1.2445526123046875,-0.12432861328125,0.38958740234375
1638746336791930400,1.153930419921875,-1.2368316650390625,-0.120208740234375,0.3762969970703125
1638746336801951500,1.163951416015625,-1.1982269287109375,-0.1161956787109375,0.3302459716796875
1638746336811973400,1.173973388671875,-1.1472320556640625,-0.0886993408203125,0.2820892333984375
1638746336821995300,1.183995361328125,-1.103851318359375,-0.05572509765625,0.2762603759765625
1638746336832017400,1.194017333984375,-1.094024658203125,-0.0544281005859375,0.28851318359375
1638746336842039300,1.204039306640625,-1.1314239501953125,-0.06854248046875,0.2942047119140625
1638746336852061200,1.214061279296875,-1.177032470703125,-0.0856170654296875,0.299468994140625
1638746336862082300,1.224082275390625,-1.2049102783203125,-0.094696044921875,0.2465362548828125
1638746336872104400,1.2341044921875,-1.20166015625,-0.088409423828125,0.1681365966796875
1638746336882126300,1.244126220703125,-1.1830291748046875,-0.0855865478515625,0.116485595703125
1638746336892148200,1.254148193359375,-1.175567626953125,-0.0871124267578125,0.08489990234375
1638746336902170400,1.26417041015625,-1.1714935302734375,-0.0836181640625,0.08917236328125
1638746336912192300,1.274192138671875,-1.16748046875,-0.0720367431640625,0.08099365234375
1638746336922213400,1.28421337890625,-1.142364501953125,-0.0605316162109375,0.047576904296875
1638746336932235300,1.2942353515625,-1.1183929443359375,-0.0582122802734375,0.015350341796875
1638746336942257400,1.30425732421875,-1.1209564208984375,-0.0527496337890625,-0.0141754150390625
1638746336952279300,1.314279296875,-1.1258087158203125,-0.0405426025390625,-0.0218048095703125
1638746336962301200,1.32430126953125,-1.1018524169921875,-0.0337371826171875,0.0010528564453125
1638746336972323300,1.3343232421875,-1.063385009765625,-0.0198516845703125,0.0471954345703125
1638746336982344400,1.344344482421875,-1.0315399169921875,-0.01165771484375,0.0800933837890625
1638746336992366300,1.354366455078125,-0.99005126953125,-0.021759033203125,0.078460693359375
1638746337002388200,1.36438818359375,-0.9376373291015625,-0.0454254150390625,0.0515594482421875
1638746337012410400,1.374410400390625,-0.9150390625,-0.0595855712890625,0.0013885498046875
1638746337022432300,1.384432373046875,-0.9196929931640625,-0.0613555908203125,-0.0363006591796875
1638746337032454100,1.3944541015625,-0.9395751953125,-0.0593109130859375,-0.0457916259765625
1638746337042475300,1.404475341796875,-0.9676361083984375,-0.060882568359375,-0.0438690185546875
1638746337052497400,1.414497314453125,-0.9962921142578125,-0.068878173828125,-0.0294647216796875
1638746337062519300,1.424519287109375,-1.0114593505859375,-0.078857421875,-0.0311279296875
1638746337072541200,1.434541259765625,-1.034698486328125,-0.0983428955078125,-0.041656494140625
1638746337082563300,1.444563232421875,-1.0544586181640625,-0.105621337890625,-0.0202178955078125
1638746337092585200,1.454585205078125,-1.0812530517578125,-0.0926513671875,0.013824462890625
1638746337102606300,1.4646064453125,-1.0791168212890625,-0.0802154541015625,0.025787353515625
1638746337112628200,1.474628173828125,-1.0599212646484375,-0.076873779296875,0.0232391357421875
1638746337122650400,1.484650390625,-1.044830322265625,-0.081329345703125,0.036102294921875
1638746337132672300,1.49467236328125,-1.032684326171875,-0.0772857666015625,0.0178985595703125
1638746337142694100,1.504694091796875,-1.034759521484375,-0.080780029296875,0.027374267578125
1638746337152716300,1.51471630859375,-1.0123443603515625,-0.0942535400390625,0.05438232421875
1638746337162737400,1.5247373046875,-1.014556884765625,-0.113861083984375,0.05145263671875
1638746337172759300,1.53475927734375,-1.0386505126953125,-0.1147308349609375,0.0616912841796875
1638746337182781200,1.54478125,-1.06475830078125,-0.0896453857421875,0.0501556396484375
1638746337192803300,1.55480322265625,-1.0814361572265625,-0.0834808349609375,0.0458221435546875
1638746337202825200,1.5648251953125,-1.0481719970703125,-0.111328125,0.056793212890625
1638746337212847400,1.574847412109375,-1.0075531005859375,-0.143798828125,0.076141357421875
1638746337222868500,1.584868408203125,-0.9785919189453125,-0.1430816650390625,0.0836639404296875
1638746337232890400,1.594890380859375,-0.9633941650390625,-0.1124114990234375,0.045806884765625
1638746337242912300,1.604912353515625,-0.9747467041015625,-0.104095458984375,0.013214111328125
1638746337252934100,1.61493408203125,-0.973724365234375,-0.1042938232421875,0.0171051025390625
1638746337262956300,1.624956298828125,-0.9568023681640625,-0.0968017578125,0.068023681640625
1638746337272978400,1.634978515625,-0.9402618408203125,-0.1003570556640625,0.1061553955078125
1638746337282999300,1.644999267578125,-0.935516357421875,-0.126251220703125,0.08306884765625
1638746337293021400,1.655021484375,-0.94183349609375,-0.1456756591796875,0.0504150390625
1638746337303043300,1.665043212890625,-0.92529296875,-0.1385955810546875,0.043304443359375
1638746337313065200,1.675065185546875,-0.923065185546875,-0.1092376708984375,0.0397186279296875
1638746337323087000,1.685087158203125,-0.9125823974609375,-0.0895843505859375,-0.0031280517578125
1638746337333109500,1.695109619140625,-0.9039306640625,-0.063140869140625,0.002410888671875
1638746337343130400,1.70513037109375,-0.9873199462890625,-0.0428314208984375,0.0507659912109375
1638746337353152300,1.71515234375,-1.0295257568359375,-0.0912933349609375,0.0393829345703125
1638746337363174400,1.72517431640625,-1.0263214111328125,-0.1573333740234375,0.00250244140625
1638746337373196300,1.7351962890625,-1.028076171875,-0.162200927734375,0.0020904541015625
1638746337383218200,1.74521826171875,-1.0250091552734375,-0.140899658203125,0.0547027587890625
1638746337393240300,1.755240234375,-0.9852447509765625,-0.13494873046875,0.0836944580078125
1638746337403261400,1.765261474609375,-0.9471588134765625,-0.148834228515625,0.0765533447265625
1638746337413283300,1.775283447265625,-0.933074951171875,-0.1552581787109375,0.0849456787109375
1638746337423305200,1.78530517578125,-0.968414306640625,-0.16119384765625,0.078643798828125
1638746337433327400,1.795327392578125,-0.9978790283203125,-0.1318511962890625,0.05224609375
1638746337443349200,1.805349365234375,-0.974365234375,-0.109588623046875,0.0523223876953125
1638746337453371400,1.815371337890625,-0.9607696533203125,-0.1028289794921875,0.0319061279296875
1638746337463392300,1.825392333984375,-0.96551513671875,-0.1064300537109375,0.010711669921875
1638746337473414400,1.835414306640625,-1.0035400390625,-0.1284637451171875,0.0252227783203125
1638746337483436300,1.845436279296875,-1.0299835205078125,-0.1555633544921875,0.0294647216796875
1638746337493458400,1.85545849609375,-1.0123443603515625,-0.158721923828125,0.02703857421875
1638746337503480600,1.86548046875,-1.0146484375,-0.1437835693359375,0.0337982177734375
1638746337513502700,1.875502685546875,-1.0056610107421875,-0.1313018798828125,0.042816162109375
1638746337523523600,1.885523681640625,-0.9860076904296875,-0.104583740234375,0.029693603515625
1638746337533545500,1.89554541015625,-0.98590087890625,-0.0879974365234375,0.02423095703125
1638746337543567600,1.905567626953125,-0.9859619140625,-0.1002960205078125,0.0186920166015625
1638746337553589500,1.915589599609375,-0.9687347412109375,-0.1173858642578125,0.0403900146484375
1638746337563611400,1.925611328125,-0.9497833251953125,-0.113739013671875,0.032440185546875
1638746337573633800,1.9356337890625,-0.94586181640625,-0.107421875,0.031829833984375
1638746337583654700,1.945654541015625,-0.989288330078125,-0.1025848388671875,0.0369873046875
1638746337593676500,1.955676513671875,-1.0111846923828125,-0.116485595703125,0.0382080078125
1638746337603698400,1.965698486328125,-0.99871826171875,-0.1301422119140625,0.043304443359375
1638746337613720600,1.975720458984375,-0.9953460693359375,-0.1222381591796875,0.035064697265625
1638746337623742500,1.985742431640625,-0.9770355224609375,-0.113250732421875,0.0263519287109375
1638746337633764600,1.9957646484375,-0.9942626953125,-0.1088104248046875,0.011138916015625
1638746337643785500,2.005785400390625,-1.00201416015625,-0.078460693359375,0.00054931640625
1638746337653807600,2.0158076171875,-0.984588623046875,-0.0457000732421875,0.0035247802734375
1638746337663829500,2.02582958984375,-0.995880126953125,-0.047454833984375,0.003997802734375
1638746337673851400,2.035851318359375,-0.9889068603515625,-0.061798095703125,0.0282135009765625
1638746337683873500,2.04587353515625,-1.0183868408203125,-0.107818603515625,0.010650634765625
1638746337693894700,2.055894775390625,-1.0155181884765625,-0.13409423828125,0.0214385986328125
1638746337703916500,2.06591650390625,-0.980194091796875,-0.1237335205078125,0.0513153076171875
1638746337713938400,2.0759384765625,-0.9795379638671875,-0.1164703369140625,0.0438690185546875
1638746337723960600,2.085960693359375,-0.9647674560546875,-0.111846923828125,0.03961181640625
1638746337733982500,2.095982421875,-0.9568634033203125,-0.0960845947265625,0.0362548828125
1638746337744004600,2.106004638671875,-0.9386444091796875,-0.0595245361328125,0.03936767578125
1638746337754025700,2.116025634765625,-0.8934326171875,-0.0276947021484375,0.0244598388671875
1638746337764047600,2.126047607421875,-0.91064453125,-0.0681915283203125,-0.0055084228515625
1638746337774069500,2.136069580078125,-1.0183868408203125,-0.1597747802734375,0.018524169921875
1638746337784091400,2.14609130859375,-1.1089630126953125,-0.157012939453125,0.08868408203125
1638746337794113500,2.156113525390625,-1.1231842041015625,-0.09771728515625,0.1366424560546875
1638746337804135700,2.1661357421875,-1.110382080078125,-0.0867462158203125,0.1047210693359375
1638746337814156500,2.176156494140625,-1.056793212890625,-0.0765228271484375,0.0708465576171875
1638746337824178700,2.1861787109375,-1.005645751953125,-0.0656585693359375,0.07635498046875
1638746337834200600,2.19620068359375,-1.0072479248046875,-0.0743255615234375,0.0804901123046875
1638746337844222500,2.206222412109375,-1.0243377685546875,-0.078704833984375,0.081878662109375
1638746337854244400,2.216244384765625,-1.0379180908203125,-0.079315185546875,0.0923004150390625
1638746337864266800,2.226266845703125,-1.0442657470703125,-0.0699462890625,0.0905303955078125
1638746337874287600,2.23628759765625,-1.045318603515625,-0.0545501708984375,0.081634521484375
1638746337884309500,2.2463095703125,-1.0152130126953125,-0.0701904296875,0.072509765625
1638746337894331600,2.25633154296875,-0.97100830078125,-0.0916595458984375,0.09832763671875
1638746337904353500,2.266353515625,-0.947052001953125,-0.078033447265625,0.121124267578125
1638746337914375400,2.27637548828125,-0.9127960205078125,-0.099700927734375,0.1161956787109375
1638746337924397600,2.2863974609375,-0.8549346923828125,-0.112091064453125,0.085357666015625
1638746337934418700,2.296418701171875,-0.8951416015625,-0.082305908203125,0.0662689208984375
1638746337944440600,2.306440673828125,-0.9707183837890625,-0.089141845703125,0.093170166015625
1638746337954462500,2.31646240234375,-1.009490966796875,-0.0814056396484375,0.1032867431640625
1638746337964484600,2.326484619140625,-1.007476806640625,-0.080108642578125,0.0922698974609375
1638746337974506500,2.336506591796875,-0.988250732421875,-0.0909881591796875,0.0868682861328125
1638746337984528600,2.346528564453125,-0.9759674072265625,-0.09344482421875,0.0897979736328125
1638746337994549500,2.356549560546875,-0.9761505126953125,-0.0887603759765625,0.0927734375
1638746338004571600,2.366571533203125,-0.9803466796875,-0.08673095703125,0.0920562744140625
1638746338014593500,2.376593505859375,-0.98187255859375,-0.0871124267578125,0.0918121337890625
1638746338024615400,2.386615478515625,-0.9818267822265625,-0.0903167724609375,0.092254638671875
1638746338034637600,2.396637451171875,-0.983001708984375,-0.0909271240234375,0.0925445556640625
1638746338044658700,2.40665869140625,-0.9849395751953125,-0.090087890625,0.0916290283203125
1638746338054680600,2.4166806640625,-0.984405517578125,-0.086883544921875,0.0923614501953125
1638746338064702500,2.426702392578125,-0.9841461181640625,-0.086212158203125,0.092071533203125
1638746338074724600,2.436724609375,-0.9812164306640625,-0.085693359375,0.0912933349609375
1638746338084746500,2.44674658203125,-0.9803466796875,-0.0874786376953125,0.0908203125
1638746338094768600,2.4567685546875,-0.982452392578125,-0.08734130859375,0.0909881591796875
1638746338104789500,2.46678955078125,-0.9833984375,-0.0884246826171875,0.09136962890625
1638746338114811600,2.476811767578125,-0.98358154296875,-0.087982177734375,0.0915679931640625
1638746338124833500,2.48683349609375,-0.983245849609375,-0.0877685546875,0.0927734375
1638746338134855400,2.49685546875,-0.9816436767578125,-0.08831787109375,0.092315673828125
1638746338144877600,2.506877685546875,-0.98004150390625,-0.089263916015625,0.09197998046875
1638746338154899700,2.516899658203125,-0.9812469482421875,-0.0883941650390625,0.0919036865234375
1638746338164920600,2.526920654296875,-0.9824066162109375,-0.08935546875,0.092041015625
1638746338174942500,2.5369423828125,-0.98321533203125,-0.08575439453125,0.0923309326171875
1638746338184964600,2.546964599609375,-0.983734130859375,-0.084930419921875,0.0924224853515625
1638746338194986500,2.556986572265625,-0.9818878173828125,-0.0855712890625,0.09173583984375
1638746338205008400,2.56700830078125,-0.9815673828125,-0.0871429443359375,0.09051513671875
1638746338215030800,2.57703076171875,-0.9811553955078125,-0.0867767333984375,0.0911712646484375
1638746338225051600,2.5870517578125,-0.982391357421875,-0.0884857177734375,0.089599609375
1638746338235073500,2.597073486328125,-0.9831695556640625,-0.0883636474609375,0.0892791748046875
1638746338245095400,2.607095458984375,-0.98333740234375,-0.087677001953125,0.0899505615234375
1638746338255117600,2.61711767578125,-0.9814910888671875,-0.0875244140625,0.091522216796875
1638746338265139500,2.627139404296875,-0.98028564453125,-0.08892822265625,0.089813232421875
1638746338275161600,2.63716162109375,-0.980560302734375,-0.0883331298828125,0.0905303955078125
1638746338285182500,2.647182373046875,-0.9822998046875,-0.0885467529296875,0.090179443359375
1638746338295204600,2.65720458984375,-0.984771728515625,-0.087554931640625,0.08990478515625
1638746338305226500,2.6672265625,-0.9842681884765625,-0.0877685546875,0.0891571044921875
1638746338315248400,2.677248291015625,-0.9814300537109375,-0.0876922607421875,0.0902862548828125
1638746338325270500,2.6872705078125,-0.981658935546875,-0.0896759033203125,0.090179443359375
1638746338335292700,2.697292724609375,-0.9803619384765625,-0.0899658203125,0.0904388427734375
1638746338345313500,2.7073134765625,-0.9823760986328125,-0.09027099609375,0.09063720703125
1638746338355335400,2.71733544921875,-0.9832305908203125,-0.08880615234375,0.0897979736328125
1638746338365357600,2.727357666015625,-0.982818603515625,-0.086639404296875,0.0887603759765625
1638746338375379500,2.73737939453125,-0.981292724609375,-0.0869598388671875,0.0916748046875
1638746338385401600,2.747401611328125,-0.9803314208984375,-0.0887451171875,0.0910186767578125
1638746338395422700,2.757422607421875,-0.980804443359375,-0.088714599609375,0.0915069580078125
1638746338405444600,2.767444580078125,-0.9827728271484375,-0.0887908935546875,0.0906982421875
1638746338415466500,2.777466552734375,-0.9837493896484375,-0.087310791015625,0.0919036865234375
1638746338425488400,2.78748828125,-0.9833221435546875,-0.087158203125,0.0882110595703125
1638746338435510500,2.797510498046875,-0.981658935546875,-0.086578369140625,0.089385986328125
1638746338445532700,2.80753271484375,-0.980621337890625,-0.08740234375,0.0922088623046875
1638746338455553500,2.817553466796875,-0.980072021484375,-0.0876922607421875,0.0933074951171875
1638746338465575700,2.82757568359375,-0.980499267578125,-0.087432861328125,0.0938568115234375
1638746338475597600,2.83759765625,-0.98443603515625,-0.0884857177734375,0.094207763671875
1638746338485619200,2.847619140625,-0.987030029296875,-0.0879974365234375,0.0951385498046875
1638746338495641300,2.857641357421875,-0.985137939453125,-0.08807373046875,0.0950927734375
1638746338505663200,2.867663330078125,-0.981719970703125,-0.08905029296875,0.094970703125
1638746338515684400,2.877684326171875,-0.9800872802734375,-0.089263916015625,0.09515380859375
1638746338525706200,2.887706298828125,-0.9805145263671875,-0.0887603759765625,0.0939788818359375
1638746338535728000,2.89772802734375,-0.982574462890625,-0.088134765625,0.0929107666015625
1638746338545750000,2.90775,-0.98321533203125,-0.0883026123046875,0.0913238525390625
1638746338555772400,2.9177724609375,-0.9825286865234375,-0.08782958984375,0.0908050537109375
1638746338565794300,2.927794189453125,-0.9791259765625,-0.0871124267578125,0.0878143310546875
1638746338575815200,2.937815185546875,-0.978302001953125,-0.0869903564453125,0.08441162109375
1638746338585837300,2.94783740234375,-0.98345947265625,-0.088592529296875,0.0819854736328125
1638746338595859200,2.957859130859375,-0.9857635498046875,-0.08880615234375,0.0811309814453125
1638746338605881000,2.967881103515625,-0.986114501953125,-0.0867156982421875,0.08367919921875
1638746338615903200,2.9779033203125,-0.985107421875,-0.086517333984375,0.08746337890625
1638746338625924400,2.98792431640625,-0.9823150634765625,-0.0879058837890625,0.0913543701171875
1638746338635946200,2.9979462890625,-0.979888916015625,-0.0897674560546875,0.0966949462890625
1638746338645968100,3.007968017578125,-0.9792633056640625,-0.08966064453125,0.0986328125
1638746338655990300,3.017990234375,-0.9800872802734375,-0.0910491943359375,0.0972137451171875
1638746338666012200,3.02801220703125,-0.9823150634765625,-0.090240478515625,0.0953521728515625
1638746338676034300,3.038034423828125,-0.9818115234375,-0.088897705078125,0.0942230224609375
1638746338686055200,3.04805517578125,-0.9810943603515625,-0.0879364013671875,0.0933074951171875
1638746338696077300,3.058077392578125,-0.9800567626953125,-0.0898284912109375,0.093780517578125
1638746338706099200,3.06809912109375,-0.9795684814453125,-0.0901947021484375,0.0979461669921875
1638746338716121000,3.07812109375,-0.980072021484375,-0.0907135009765625,0.1008453369140625
1638746338726143500,3.0881435546875,-0.9792938232421875,-0.0893402099609375,0.0996856689453125
1638746338736165400,3.098165283203125,-0.980316162109375,-0.08837890625,0.0907745361328125
1638746338746186200,3.108186279296875,-0.98162841796875,-0.089385986328125,0.081634521484375
1638746338756208000,3.1182080078125,-0.9826507568359375,-0.0927734375,0.0743865966796875
1638746338766230300,3.128230224609375,-0.9843292236328125,-0.0925140380859375,0.0734710693359375
1638746338776252200,3.138252197265625,-0.98651123046875,-0.090362548828125,0.0767974853515625
1638746338786274300,3.1482744140625,-0.9865570068359375,-0.0894775390625,0.07989501953125
1638746338796296400,3.15829638671875,-0.983917236328125,-0.0879364013671875,0.084442138671875
1638746338806317300,3.1683173828125,-0.978790283203125,-0.0855865478515625,0.0899810791015625
1638746338816339200,3.178339111328125,-0.97625732421875,-0.08526611328125,0.095733642578125
1638746338826361000,3.188361083984375,-0.9786529541015625,-0.0845489501953125,0.10003662109375
1638746338836383200,3.19838330078125,-0.9852294921875,-0.08746337890625,0.1012420654296875
1638746338846405400,3.2084052734375,-0.9896392822265625,-0.08990478515625,0.101715087890625
1638746338856427300,3.21842724609375,-0.98736572265625,-0.088226318359375,0.10064697265625
1638746338866448100,3.2284482421875,-0.9844970703125,-0.0844879150390625,0.09716796875
1638746338876470300,3.23847021484375,-0.9833221435546875,-0.085906982421875,0.089447021484375
1638746338886492200,3.2484921875,-0.9825439453125,-0.082794189453125,0.0849456787109375
1638746338896514300,3.258514404296875,-0.9824981689453125,-0.080322265625,0.0796051025390625
1638746338906536400,3.268536376953125,-0.98712158203125,-0.0825958251953125,0.0738525390625
1638746338916557300,3.278557373046875,-0.99102783203125,-0.0858612060546875,0.0725860595703125
1638746338926579200,3.2885791015625,-0.989349365234375,-0.086456298828125,0.0738372802734375
1638746338936601000,3.29860107421875,-0.9878692626953125,-0.0891876220703125,0.077911376953125
1638746338946623200,3.308623291015625,-0.984832763671875,-0.0926971435546875,0.0848236083984375
1638746338956645400,3.318645263671875,-0.9795684814453125,-0.094696044921875,0.0910797119140625
1638746338966667300,3.328667236328125,-0.978607177734375,-0.0955963134765625,0.0978851318359375
1638746338976688000,3.338688232421875,-0.9792327880859375,-0.093170166015625,0.0993499755859375
1638746338986710300,3.348710205078125,-0.9791717529296875,-0.0926361083984375,0.09869384765625
1638746338996732200,3.358732177734375,-0.9787139892578125,-0.0935516357421875,0.094635009765625
1638746339006754000,3.368754150390625,-0.9795074462890625,-0.0933837890625,0.0897979736328125
1638746339016776400,3.3787763671875,-0.9802093505859375,-0.093048095703125,0.0887451171875
1638746339026798300,3.38879833984375,-0.981597900390625,-0.092529296875,0.089263916015625
1638746339036819200,3.398819091796875,-0.9833221435546875,-0.09100341796875,0.089263916015625
1638746339046841000,3.408841064453125,-0.983001708984375,-0.087982177734375,0.08868408203125
1638746339056863200,3.41886328125,-0.9837493896484375,-0.0883941650390625,0.0900115966796875
1638746339066885000,3.428885009765625,-0.98223876953125,-0.090179443359375,0.0923919677734375
1638746339076907300,3.4389072265625,-0.9825286865234375,-0.0905914306640625,0.092926025390625
1638746339086928400,3.448928466796875,-0.9827423095703125,-0.0895538330078125,0.0928497314453125
1638746339096950300,3.4589501953125,-0.981689453125,-0.0869903564453125,0.090545654296875
1638746339106972200,3.46897216796875,-0.980987548828125,-0.0835723876953125,0.0905914306640625
1638746339116994000,3.478994140625,-0.980865478515625,-0.08294677734375,0.090484619140625
1638746339127016200,3.48901611328125,-0.9821014404296875,-0.084686279296875,0.0915069580078125
1638746339137038300,3.499038330078125,-0.983917236328125,-0.083648681640625,0.09271240234375
1638746339147059200,3.50905908203125,-0.9852447509765625,-0.0870208740234375,0.092071533203125
1638746339157081300,3.519081298828125,-0.98370361328125,-0.0878753662109375,0.0921783447265625
1638746339167103200,3.529103271484375,-0.981414794921875,-0.089447021484375,0.0922393798828125
1638746339177125000,3.539125,-0.9781951904296875,-0.090606689453125,0.09259033203125
1638746339187147300,3.549147216796875,-0.9783782958984375,-0.0915374755859375,0.0928497314453125
1638746339197169400,3.55916943359375,-0.9792327880859375,-0.0906219482421875,0.0937042236328125
1638746339207190300,3.569190185546875,-0.9824371337890625,-0.089202880859375,0.0937042236328125
1638746339217212200,3.579212158203125,-0.98370361328125,-0.089447021484375,0.091796875
1638746339227234300,3.589234375,-0.9830322265625,-0.0892486572265625,0.0914764404296875
1638746339237256200,3.599256103515625,-0.9815216064453125,-0.0899658203125,0.0919189453125
1638746339247278300,3.6092783203125,-0.9805755615234375,-0.0919952392578125,0.0908355712890625
1638746339257299200,3.61929931640625,-0.9803619384765625,-0.09429931640625,0.0925750732421875
1638746339267321300,3.6293212890625,-0.9811859130859375,-0.097137451171875,0.092864990234375
1638746339277343200,3.63934326171875,-0.9822845458984375,-0.097015380859375,0.0935821533203125
1638746339287365000,3.649365234375,-0.98004150390625,-0.097503662109375,0.0925140380859375
1638746339297387300,3.65938720703125,-0.9789886474609375,-0.0972747802734375,0.0929412841796875
1638746339307409400,3.669409423828125,-0.98004150390625,-0.0995941162109375,0.093536376953125
1638746339317430300,3.67943017578125,-0.981292724609375,-0.099151611328125,0.0951995849609375
1638746339327452200,3.6894521484375,-0.9824676513671875,-0.09716796875,0.095611572265625
1638746339337474300,3.699474365234375,-0.9838104248046875,-0.0946807861328125,0.0929718017578125
1638746339347496200,3.70949609375,-0.9821624755859375,-0.09234619140625,0.0904388427734375
1638746339357518000,3.71951806640625,-0.9807586669921875,-0.0878448486328125,0.08837890625
1638746339367540500,3.72954052734375,-0.9819183349609375,-0.087371826171875,0.0869293212890625
1638746339377561300,3.739561279296875,-0.983795166015625,-0.0883636474609375,0.087982177734375
1638746339387583200,3.749583251953125,-0.9843292236328125,-0.0896453857421875,0.0875244140625
1638746339397605000,3.759605224609375,-0.984283447265625,-0.091033935546875,0.0871124267578125
1638746339407627300,3.769627197265625,-0.986602783203125,-0.0914306640625,0.086639404296875
1638746339417649200,3.779649169921875,-0.985809326171875,-0.0907440185546875,0.0849761962890625
1638746339427671300,3.78967138671875,-0.9842681884765625,-0.089996337890625,0.0854949951171875
1638746339437692200,3.799692138671875,-0.98223876953125,-0.0883026123046875,0.08575439453125
1638746339447714300,3.80971435546875,-0.9830474853515625,-0.08837890625,0.0876312255859375
1638746339457736200,3.819736083984375,-0.98345947265625,-0.0873260498046875,0.090362548828125
1638746339467758000,3.829758056640625,-0.98297119140625,-0.0863800048828125,0.0941314697265625
1638746339477780200,3.8397802734375,-0.9828033447265625,-0.08636474609375,0.096160888671875
1638746339487801900,3.8498017578125,-0.9807891845703125,-0.087799072265625,0.0966644287109375
1638746339497823700,3.85982373046875,-0.979400634765625,-0.0885772705078125,0.0939483642578125
1638746339507845600,3.869845703125,-0.9798583984375,-0.0901947021484375,0.0912933349609375
1638746339517867800,3.87986767578125,-0.9810028076171875,-0.09051513671875,0.0910491943359375
1638746339527889700,3.8898896484375,-0.98297119140625,-0.089996337890625,0.0900115966796875
1638746339537911600,3.89991162109375,-0.983184814453125,-0.089080810546875,0.091644287109375
1638746339547932700,3.9099326171875,-0.981231689453125,-0.0892181396484375,0.0930633544921875
1638746339557954800,3.919954833984375,-0.9792327880859375,-0.0898590087890625,0.0933837890625
1638746339567976700,3.929976806640625,-0.98052978515625,-0.0899658203125,0.09259033203125
1638746339577998600,3.93999853515625,-0.98260498046875,-0.08831787109375,0.0915679931640625
1638746339588020700,3.950020751953125,-0.9829864501953125,-0.085968017578125,0.0903167724609375
1638746339598042600,3.960042724609375,-0.982147216796875,-0.0849456787109375,0.08831787109375
1638746339608063700,3.970063720703125,-0.9818572998046875,-0.083343505859375,0.088592529296875
1638746339618085600,3.980085693359375,-0.9832916259765625,-0.0821075439453125,0.089599609375
1638746339628107800,3.990107666015625,-0.984466552734375,-0.081390380859375,0.0890655517578125
1638746339638129700,4.000129638671875,-0.984405517578125,-0.08514404296875,0.090179443359375
1638746339648151600,4.010151611328125,-0.982452392578125,-0.0892486572265625,0.0909271240234375
1638746339658172700,4.020172607421875,-0.9790496826171875,-0.0905609130859375,0.09246826171875
1638746339668194800,4.03019482421875,-0.977752685546875,-0.0926971435546875,0.0891265869140625
1638746339678216700,4.040216796875,-0.978424072265625,-0.0967254638671875,0.0821380615234375
1638746339688238600,4.050238525390625,-0.983245849609375,-0.0968475341796875,0.078582763671875
1638746339698260700,4.0602607421875,-0.9884796142578125,-0.0951385498046875,0.0775146484375
1638746339708282600,4.07028271484375,-0.991485595703125,-0.09332275390625,0.0824737548828125
1638746339718303700,4.0803037109375,-0.99188232421875,-0.0936737060546875,0.0885009765625
1638746339728325600,4.09032568359375,-0.9881591796875,-0.09490966796875,0.0951080322265625
1638746339738347800,4.10034765625,-0.9791412353515625,-0.0932769775390625,0.0976715087890625
1638746339748369700,4.11036962890625,-0.9753875732421875,-0.0931396484375,0.0972900390625
1638746339758391600,4.1203916015625,-0.9782562255859375,-0.096282958984375,0.09967041015625
1638746339768413700,4.13041357421875,-0.9788970947265625,-0.0927734375,0.0980224609375
1638746339778434800,4.140434814453125,-0.9780731201171875,-0.0876007080078125,0.0934600830078125
1638746339788456700,4.150456787109375,-0.9791259765625,-0.0870361328125,0.086090087890625
1638746339798478600,4.160478515625,-0.9814453125,-0.088348388671875,0.0822906494140625
1638746339808500700,4.170500732421875,-0.98468017578125,-0.0885467529296875,0.0831756591796875
1638746339818522600,4.180522705078125,-0.987030029296875,-0.0891571044921875,0.0867156982421875
1638746339828544500,4.19054443359375,-0.9890289306640625,-0.0914459228515625,0.0918731689453125
1638746339838566000,4.20056591796875,-0.984375,-0.09393310546875,0.093048095703125
1638746339848587800,4.210587890625,-0.9776458740234375,-0.093353271484375,0.094329833984375
1638746339858609700,4.220609619140625,-0.9759979248046875,-0.09051513671875,0.0916290283203125
1638746339868631600,4.230631591796875,-0.97845458984375,-0.087371826171875,0.0882568359375
1638746339878653700,4.24065380859375,-0.983001708984375,-0.0853118896484375,0.084808349609375
1638746339888674800,4.2506748046875,-0.98968505859375,-0.0821075439453125,0.0812835693359375
1638746339898696700,4.26069677734375,-0.9920196533203125,-0.0810089111328125,0.0816192626953125
1638746339908718800,4.27071875,-0.9899749755859375,-0.08038330078125,0.0849151611328125
1638746339918740700,4.28074072265625,-0.98431396484375,-0.0829315185546875,0.085235595703125
1638746339928762600,4.2907626953125,-0.980926513671875,-0.0868072509765625,0.083770751953125
1638746339938783700,4.30078369140625,-0.979705810546875,-0.092376708984375,0.083770751953125
1638746339948806000,4.310805908203125,-0.9814910888671875,-0.0941009521484375,0.0871734619140625
1638746339958827800,4.320827880859375,-0.9839019775390625,-0.0934600830078125,0.09405517578125
1638746339968849700,4.330849609375,-0.9822235107421875,-0.0929718017578125,0.0962677001953125
1638746339978871800,4.340871826171875,-0.9793243408203125,-0.0904998779296875,0.093719482421875
1638746339988893700,4.350893798828125,-0.97991943359375,-0.0888214111328125,0.0888671875
1638746339998914800,4.360914794921875,-0.9833526611328125,-0.0875091552734375,0.086883544921875
1638746340008936700,4.370936767578125,-0.9886932373046875,-0.087127685546875,0.0895538330078125
1638746340018958800,4.380958740234375,-0.9886932373046875,-0.088958740234375,0.090179443359375
1638746340028980700,4.390980712890625,-0.98480224609375,-0.0948944091796875,0.0908355712890625
1638746340039002600,4.401002685546875,-0.9793853759765625,-0.0969696044921875,0.0911712646484375
1638746340049024800,4.411024658203125,-0.9739532470703125,-0.096649169921875,0.0906219482421875
1638746340059046000,4.4210458984375,-0.976531982421875,-0.0933380126953125,0.0880889892578125
1638746340069067800,4.43106787109375,-0.9814453125,-0.090087890625,0.08612060546875
1638746340079089700,4.441089599609375,-0.987457275390625,-0.0848846435546875,0.08636474609375
1638746340089111800,4.45111181640625,-0.9886627197265625,-0.0815582275390625,0.086578369140625
1638746340099133700,4.4611337890625,-0.98651123046875,-0.083038330078125,0.0886688232421875
1638746340109154800,4.47115478515625,-0.9807586669921875,-0.087249755859375,0.090911865234375
1638746340119176700,4.4811767578125,-0.9771270751953125,-0.0902099609375,0.0949249267578125
1638746340129198800,4.49119873046875,-0.97650146484375,-0.0934295654296875,0.096588134765625
1638746340139220700,4.501220703125,-0.978240966796875,-0.094635009765625,0.0985565185546875
1638746340149242600,4.51124267578125,-0.9793243408203125,-0.094940185546875,0.0978240966796875
1638746340159264800,4.5212646484375,-0.9817352294921875,-0.092498779296875,0.0950164794921875
1638746340169286000,4.531285888671875,-0.9823150634765625,-0.0929718017578125,0.0906219482421875
1638746340179307800,4.541307861328125,-0.9829254150390625,-0.0916900634765625,0.088897705078125
1638746340189329700,4.55132958984375,-0.983367919921875,-0.08905029296875,0.0896759033203125
1638746340199351800,4.561351806640625,-0.981597900390625,-0.0864715576171875,0.0916595458984375
1638746340209373700,4.571373779296875,-0.980010986328125,-0.0865020751953125,0.094268798828125
1638746340219395600,4.5813955078125,-0.9777679443359375,-0.08782958984375,0.0966644287109375
1638746340229416700,4.591416748046875,-0.9781951904296875,-0.0902099609375,0.0978240966796875
1638746340239438800,4.60143896484375,-0.98187255859375,-0.0911407470703125,0.0975494384765625
1638746340249460700,4.611460693359375,-0.984466552734375,-0.091400146484375,0.096466064453125
1638746340259482600,4.621482666015625,-0.9850006103515625,-0.089599609375,0.093780517578125
1638746340269504800,4.6315048828125,-0.9828338623046875,-0.08880615234375,0.0897674560546875
1638746340279526700,4.641526611328125,-0.9810028076171875,-0.08795166015625,0.087890625
1638746340289547800,4.6515478515625,-0.9793853759765625,-0.0880584716796875,0.0875244140625
1638746340299569700,4.661569580078125,-0.98016357421875,-0.0887603759765625,0.088958740234375
1638746340309591800,4.671591796875,-0.9836273193359375,-0.090576171875,0.0896759033203125
1638746340319613700,4.68161376953125,-0.983642578125,-0.0882415771484375,0.092071533203125
1638746340329635600,4.691635498046875,-0.9805755615234375,-0.0893096923828125,0.0950164794921875
1638746340339656700,4.70165673828125,-0.9761199951171875,-0.087249755859375,0.094696044921875
1638746340349678800,4.711678955078125,-0.976654052734375,-0.086090087890625,0.0966796875
1638746340359700700,4.72170068359375,-0.981903076171875,-0.0852813720703125,0.0990447998046875
1638746340369722600,4.73172265625,-0.9879913330078125,-0.0858154296875,0.097503662109375
1638746340379744800,4.741744873046875,-0.9915313720703125,-0.08758544921875,0.096435546875
1638746340389766700,4.7517666015625,-0.9882049560546875,-0.0920257568359375,0.093505859375
1638746340399787800,4.761787841796875,-0.980712890625,-0.0935211181640625,0.0917510986328125
1638746340409809700,4.7718095703125,-0.9752655029296875,-0.094329833984375,0.091827392578125
1638746340419831800,4.781831787109375,-0.9737091064453125,-0.093841552734375,0.0944671630859375
1638746340429853700,4.791853759765625,-0.97613525390625,-0.0910491943359375,0.0934906005859375
1638746340439875600,4.80187548828125,-0.9802093505859375,-0.0884552001953125,0.0941009521484375
1638746340449896700,4.811896728515625,-0.985260009765625,-0.0859832763671875,0.0953826904296875
1638746340459918800,4.8219189453125,-0.98846435546875,-0.0837860107421875,0.095977783203125
1638746340469940700,4.831940673828125,-0.9859466552734375,-0.08477783203125,0.0972442626953125
1638746340479963000,4.841962890625,-0.98358154296875,-0.08966064453125,0.09716796875
1638746340489984300,4.851984375,-0.979583740234375,-0.095733642578125,0.0948638916015625
1638746340500006400,4.86200634765625,-0.976715087890625,-0.0995635986328125,0.0894622802734375
1638746340510027500,4.872027587890625,-0.975341796875,-0.10369873046875,0.0833587646484375
1638746340520049400,4.88204931640625,-0.977630615234375,-0.10382080078125,0.0765380859375
1638746340530071300,4.8920712890625,-0.9836883544921875,-0.099578857421875,0.0696563720703125
1638746340540093400,4.902093505859375,-0.9872894287109375,-0.0924224853515625,0.071868896484375
1638746340550115300,4.912115234375,-0.9885101318359375,-0.0830841064453125,0.07586669921875
1638746340560136200,4.92213623046875,-0.9889373779296875,-0.076446533203125,0.0789337158203125
1638746340570158300,4.932158447265625,-0.990325927734375,-0.072845458984375,0.0803070068359375
1638746340580180500,4.942180419921875,-0.9900665283203125,-0.0733642578125,0.0786590576171875
1638746340590202400,4.952202392578125,-0.9884185791015625,-0.0785675048828125,0.0762481689453125
1638746340600224300,4.962224365234375,-0.9871826171875,-0.0839691162109375,0.0737762451171875
1638746340610246400,4.972246337890625,-0.9882049560546875,-0.091796875,0.07354736328125
1638746340620267300,4.982267333984375,-0.98760986328125,-0.0946197509765625,0.0743408203125
1638746340630289400,4.992289306640625,-0.98846435546875,-0.0947113037109375,0.0787811279296875
1638746340640311300,5.002311279296875,-0.987701416015625,-0.09490966796875,0.0867156982421875
1638746340650333400,5.01233349609375,-0.98553466796875,-0.095703125,0.089691162109375
1638746340660355300,5.022355224609375,-0.980804443359375,-0.0954437255859375,0.0948333740234375
1638746340670376200,5.032376220703125,-0.9742889404296875,-0.0941925048828125,0.10003662109375
1638746340680398300,5.0423984375,-0.968963623046875,-0.0865631103515625,0.1063995361328125
1638746340690420500,5.05242041015625,-0.9689788818359375,-0.077606201171875,0.109893798828125
1638746340700442400,5.0624423828125,-0.9717864990234375,-0.0730133056640625,0.1103057861328125
1638746340710464300,5.07246435546875,-0.9752349853515625,-0.0737762451171875,0.1081695556640625
1638746340720486400,5.082486328125,-0.97833251953125,-0.0846099853515625,0.0984954833984375
1638746340730507300,5.09250732421875,-0.984039306640625,-0.0893096923828125,0.0858612060546875
1638746340740529400,5.102529296875,-0.9898681640625,-0.0858612060546875,0.0747833251953125
1638746340750551300,5.11255126953125,-0.993133544921875,-0.0801544189453125,0.0755157470703125
1638746340760573400,5.122573486328125,-0.9923248291015625,-0.0757598876953125,0.0837860107421875
1638746340770595300,5.13259521484375,-0.978759765625,-0.074554443359375,0.084991455078125
1638746340780617200,5.1426171875,-0.95501708984375,-0.076629638671875,0.0902099609375
1638746340790638300,5.152638427734375,-0.9457855224609375,-0.0776824951171875,0.105987548828125
1638746340800660500,5.162660400390625,-0.9591522216796875,-0.079498291015625,0.111114501953125
1638746340810682400,5.172682373046875,-0.9867095947265625,-0.087646484375,0.09814453125
1638746340820704300,5.182704345703125,-1.022064208984375,-0.1086883544921875,0.071746826171875
1638746340830726400,5.192726318359375,-1.0351104736328125,-0.1194305419921875,0.038818359375
1638746340840747300,5.202747314453125,-1.013336181640625,-0.1107177734375,0.0235595703125
1638746340850769400,5.212769287109375,-1.0021514892578125,-0.1194000244140625,0.03045654296875
1638746340860791600,5.22279150390625,-0.9836273193359375,-0.1172637939453125,0.05413818359375
1638746340870813400,5.2328134765625,-0.9726104736328125,-0.099853515625,0.0865631103515625
1638746340880835300,5.24283544921875,-0.9669647216796875,-0.0903167724609375,0.115478515625
1638746340890857200,5.252857177734375,-0.96728515625,-0.0896148681640625,0.1510009765625
1638746340900878300,5.26287841796875,-0.9755706787109375,-0.0861663818359375,0.1909637451171875
1638746340910900500,5.272900390625,-0.9778594970703125,-0.073333740234375,0.2060546875
1638746340920922400,5.28292236328125,-0.9740142822265625,-0.071685791015625,0.1986083984375
1638746340930944500,5.292944580078125,-0.97271728515625,-0.0792236328125,0.1649322509765625
1638746340940966400,5.30296630859375,-0.9771881103515625,-0.09722900390625,0.12286376953125
1638746340950987300,5.3129873046875,-0.984771728515625,-0.11322021484375,0.1083831787109375
1638746340961009200,5.323009033203125,-0.9857177734375,-0.113922119140625,0.1183319091796875
1638746340971031600,5.333031494140625,-0.979461669921875,-0.1063232421875,0.1290130615234375
1638746340981053400,5.343053466796875,-0.98040771484375,-0.1019134521484375,0.142547607421875
1638746340991075300,5.353075439453125,-0.983123779296875,-0.0896759033203125,0.15020751953125
1638746341001097500,5.363097412109375,-0.9793548583984375,-0.0774993896484375,0.1488037109375
1638746341011118300,5.373118408203125,-0.974822998046875,-0.0751800537109375,0.1533050537109375
1638746341021140200,5.38314013671875,-0.9656829833984375,-0.0688934326171875,0.158721923828125
1638746341031162400,5.393162353515625,-0.9608917236328125,-0.0610809326171875,0.119598388671875
1638746341041184500,5.4031845703125,-0.9698944091796875,-0.066925048828125,0.0720062255859375
1638746341051206400,5.413206298828125,-0.9815521240234375,-0.07513427734375,0.0530548095703125
1638746341061227300,5.423227294921875,-0.9850921630859375,-0.077239990234375,0.064605712890625
1638746341071249200,5.433249267578125,-0.9848175048828125,-0.0818939208984375,0.0773468017578125
1638746341081271300,5.443271240234375,-0.9759368896484375,-0.090118408203125,0.08935546875
1638746341091293400,5.45329345703125,-0.9690399169921875,-0.0913238525390625,0.1102752685546875
1638746341101315300,5.4633154296875,-0.956146240234375,-0.0964813232421875,0.1007843017578125
1638746341111337500,5.47333740234375,-0.9487457275390625,-0.0972442626953125,0.078125
1638746341121358300,5.4833583984375,-0.9549407958984375,-0.090362548828125,0.0858001708984375
1638746341131380200,5.493380126953125,-0.9629669189453125,-0.084564208984375,0.1018218994140625
1638746341141402400,5.50340234375,-0.97113037109375,-0.0799560546875,0.1044158935546875
1638746341151424500,5.513424560546875,-0.9801788330078125,-0.084686279296875,0.0963897705078125
1638746341161446400,5.5234462890625,-0.9875946044921875,-0.08941650390625,0.087005615234375
1638746341171467300,5.53346728515625,-0.9837799072265625,-0.09228515625,0.0636138916015625
1638746341181489200,5.5434892578125,-0.98065185546875,-0.0910797119140625,0.046173095703125
1638746341191511300,5.55351123046875,-0.981597900390625,-0.0865325927734375,0.0454864501953125
1638746341201533400,5.563533447265625,-0.9873199462890625,-0.0825653076171875,0.0569915771484375
1638746341211555300,5.573555419921875,-0.9942474365234375,-0.0806427001953125,0.073699951171875
1638746341221577500,5.583577392578125,-1.0029754638671875,-0.0871124267578125,0.093170166015625
1638746341231598300,5.593598388671875,-1.001617431640625,-0.09698486328125,0.103851318359375
1638746341241620200,5.6036201171875,-0.9969482421875,-0.0993499755859375,0.1066436767578125
1638746341251642000,5.61364208984375,-0.995697021484375,-0.0967254638671875,0.0985565185546875
1638746341261664500,5.62366455078125,-0.9984283447265625,-0.0927581787109375,0.081512451171875
1638746341271686400,5.633686279296875,-1.00445556640625,-0.09710693359375,0.066680908203125
1638746341281707300,5.643707275390625,-1.0107879638671875,-0.1009063720703125,0.0574188232421875
1638746341291729400,5.6537294921875,-1.0095367431640625,-0.1000213623046875,0.050018310546875
1638746341301751300,5.663751220703125,-0.9996337890625,-0.092193603515625,0.0470428466796875
1638746341311773200,5.673773193359375,-0.98663330078125,-0.088653564453125,0.0500335693359375
1638746341321795300,5.68379541015625,-0.9789276123046875,-0.0909423828125,0.061553955078125
1638746341331817500,5.6938173828125,-0.97772216796875,-0.0917816162109375,0.07720947265625
1638746341341838300,5.70383837890625,-0.9813232421875,-0.0880126953125,0.0893707275390625
1638746341351860200,5.713860107421875,-0.98681640625,-0.0849151611328125,0.0962371826171875
1638746341361882400,5.72388232421875,-0.9882965087890625,-0.076416015625,0.09918212890625
1638746341371904300,5.733904296875,-0.985565185546875,-0.066650390625,0.0984649658203125
1638746341381926400,5.743926513671875,-0.9849700927734375,-0.0614471435546875,0.095855712890625
1638746341391947300,5.753947265625,-0.9824066162109375,-0.064056396484375,0.09375
1638746341401969400,5.763969482421875,-0.9760894775390625,-0.067840576171875,0.09051513671875
1638746341411991300,5.7739912109375,-0.971923828125,-0.068115234375,0.085784912109375
1638746341422013200,5.78401318359375,-0.972381591796875,-0.068817138671875,0.080841064453125
1638746341432035300,5.794035400390625,-0.9732666015625,-0.0717315673828125,0.080078125
1638746341442057500,5.804057373046875,-0.974273681640625,-0.0749053955078125,0.0831298828125
1638746341452078300,5.814078369140625,-0.9751739501953125,-0.0797271728515625,0.0871734619140625
1638746341462100200,5.824100341796875,-0.9805908203125,-0.0850067138671875,0.09136962890625
1638746341472122400,5.834122314453125,-0.985382080078125,-0.08966064453125,0.0926666259765625
1638746341482144300,5.844144287109375,-0.9881744384765625,-0.0911407470703125,0.0908355712890625
1638746341492166400,5.85416650390625,-0.9856414794921875,-0.092803955078125,0.0828857421875
1638746341502187300,5.864187255859375,-0.9808502197265625,-0.0919036865234375,0.0781707763671875
1638746341512209200,5.874209228515625,-0.978424072265625,-0.091766357421875,0.076202392578125
1638746341522231000,5.88423095703125,-0.9795379638671875,-0.0915069580078125,0.076507568359375
1638746341532253200,5.894253173828125,-0.9822235107421875,-0.09100341796875,0.0779266357421875
1638746341542275000,5.904275146484375,-0.985137939453125,-0.0863800048828125,0.07623291015625
1638746341552297200,5.914297119140625,-0.987762451171875,-0.0830230712890625,0.074249267578125
1638746341562318300,5.924318359375,-0.9907379150390625,-0.08197021484375,0.0777587890625
1638746341572340200,5.93434033203125,-0.9911956787109375,-0.0836639404296875,0.0833587646484375
1638746341582362000,5.944362060546875,-0.9888763427734375,-0.086761474609375,0.0861663818359375
1638746341592384000,5.954384033203125,-0.98626708984375,-0.090576171875,0.08294677734375
1638746341602406100,5.96440625,-0.98370361328125,-0.0937652587890625,0.0800323486328125
1638746341612427300,5.97442724609375,-0.9831695556640625,-0.092620849609375,0.077301025390625
1638746341622449200,5.98444921875,-0.9828033447265625,-0.0917510986328125,0.0783843994140625
1638746341632471300,5.99447119140625,-0.981201171875,-0.0924835205078125,0.0820770263671875
1638746341642493200,6.0044931640625,-0.979461669921875,-0.0933380126953125,0.087860107421875
1638746341652515000,6.01451513671875,-0.980194091796875,-0.0936279296875,0.090850830078125
1638746341662537200,6.024537109375,-0.981414794921875,-0.089508056640625,0.094207763671875
1638746341672558300,6.034558349609375,-0.9829254150390625,-0.087982177734375,0.0956268310546875
1638746341682580200,6.044580322265625,-0.982696533203125,-0.0865631103515625,0.093475341796875
1638746341692602000,6.05460205078125,-0.9796142578125,-0.0853729248046875,0.0890045166015625
1638746341702624300,6.064624267578125,-0.97760009765625,-0.0852203369140625,0.0819244384765625
1638746341712646100,6.074646240234375,-0.9809417724609375,-0.083221435546875,0.079986572265625
1638746341722667300,6.084667236328125,-0.9828338623046875,-0.0848541259765625,0.0809783935546875
1638746341732689200,6.094689208984375,-0.9810333251953125,-0.085479736328125,0.0830078125
1638746341742711300,6.104711181640625,-0.9822845458984375,-0.0854339599609375,0.0858154296875
1638746341752733200,6.114733154296875,-0.981353759765625,-0.088714599609375,0.0853729248046875
1638746341762755000,6.124755126953125,-0.9818878173828125,-0.091583251953125,0.084625244140625
1638746341772777200,6.134777099609375,-0.9827117919921875,-0.09423828125,0.08172607421875
1638746341782798300,6.14479833984375,-0.9849090576171875,-0.096405029296875,0.0778961181640625
1638746341792820200,6.1548203125,-0.9847564697265625,-0.0954742431640625,0.077606201171875
1638746341802842000,6.164842041015625,-0.984100341796875,-0.0915679931640625,0.0788421630859375
1638746341812864300,6.1748642578125,-0.98553466796875,-0.0868377685546875,0.0816650390625
1638746341822886100,6.18488623046875,-0.9847412109375,-0.083831787109375,0.0831146240234375
1638746341832907300,6.1949072265625,-0.984039306640625,-0.0810546875,0.0829925537109375
1638746341842929200,6.20492919921875,-0.98388671875,-0.0801849365234375,0.0791778564453125
1638746341852951300,6.214951416015625,-0.983978271484375,-0.08001708984375,0.0780792236328125
1638746341862973200,6.22497314453125,-0.982147216796875,-0.08099365234375,0.076507568359375
1638746341872995000,6.2349951171875,-0.981658935546875,-0.0828704833984375,0.076324462890625
1638746341883017200,6.245017333984375,-0.9801483154296875,-0.086334228515625,0.07476806640625
1638746341893038300,6.255038330078125,-0.9827728271484375,-0.0883636474609375,0.078155517578125
1638746341903060200,6.265060302734375,-0.98565673828125,-0.08935546875,0.0801849365234375
1638746341913082000,6.27508203125,-0.9868011474609375,-0.090240478515625,0.0841827392578125
1638746341923104300,6.285104248046875,-0.9861907958984375,-0.0897216796875,0.087493896484375
1638746341933126100,6.295126220703125,-0.982757568359375,-0.0882568359375,0.087646484375
1638746341943147300,6.305147216796875,-0.9790191650390625,-0.0860748291015625,0.0845489501953125
1638746341953169200,6.315169189453125,-0.979034423828125,-0.0858612060546875,0.083953857421875
1638746341963191300,6.32519140625,-0.979949951171875,-0.085906982421875,0.0855255126953125
1638746341973213200,6.335213134765625,-0.983642578125,-0.084381103515625,0.0865325927734375
1638746341983235000,6.345235107421875,-0.984588623046875,-0.0849761962890625,0.0859222412109375
1638746341993257200,6.35525732421875,-0.9830780029296875,-0.087249755859375,0.0827484130859375
1638746342003278300,6.3652783203125,-0.97918701171875,-0.091827392578125,0.0795745849609375
1638746342013300200,6.37530029296875,-0.9792633056640625,-0.0938873291015625,0.077972412109375
1638746342023322000,6.385322021484375,-0.9803924560546875,-0.09527587890625,0.075286865234375
1638746342033344300,6.39534423828125,-0.985015869140625,-0.095306396484375,0.073028564453125
1638746342043366100,6.4053662109375,-0.9868011474609375,-0.090667724609375,0.0738372802734375
1638746342053387300,6.41538720703125,-0.98577880859375,-0.0886383056640625,0.0765533447265625
1638746342063409200,6.4254091796875,-0.9825286865234375,-0.0886383056640625,0.0755615234375
1638746342073431300,6.435431396484375,-0.979888916015625,-0.0882720947265625,0.0737152099609375
1638746342083453200,6.445453125,-0.979339599609375,-0.0896453857421875,0.0744781494140625
1638746342093475000,6.45547509765625,-0.9814300537109375,-0.09161376953125,0.0762939453125
1638746342103496200,6.46549609375,-0.98480224609375,-0.09130859375,0.0804901123046875
1638746342113518300,6.475518310546875,-0.9865570068359375,-0.0915679931640625,0.0831146240234375
1638746342123540200,6.485540283203125,-0.9857635498046875,-0.0941619873046875,0.0843505859375
1638746342133562000,6.49556201171875,-0.980926513671875,-0.0936279296875,0.0831756591796875
1638746342143584300,6.505584228515625,-0.9799346923828125,-0.090667724609375,0.077667236328125
1638746342153606100,6.515606201171875,-0.9821319580078125,-0.08740234375,0.0694427490234375
1638746342163627300,6.525627197265625,-0.981292724609375,-0.085113525390625,0.0660552978515625
1638746342173649400,6.5356494140625,-0.980438232421875,-0.086090087890625,0.0688934326171875
1638746342183671300,6.54567138671875,-0.9775390625,-0.087066650390625,0.072540283203125
1638746342193693200,6.555693115234375,-0.974761962890625,-0.085662841796875,0.0750732421875
1638746342203715300,6.56571533203125,-0.9774932861328125,-0.086700439453125,0.0782470703125
1638746342213736200,6.575736083984375,-0.983154296875,-0.08917236328125,0.083770751953125
1638746342223758300,6.58575830078125,-0.984893798828125,-0.0926055908203125,0.0880889892578125
1638746342233780200,6.5957802734375,-0.9826812744140625,-0.093048095703125,0.0902557373046875
1638746342243802400,6.60580224609375,-0.978302001953125,-0.095489501953125,0.0911865234375
1638746342253824300,6.61582421875,-0.9748687744140625,-0.0992889404296875,0.0910491943359375
1638746342263846100,6.62584619140625,-0.9722442626953125,-0.0988006591796875,0.0898284912109375
1638746342273867000,6.635866943359375,-0.9725799560546875,-0.0937042236328125,0.0914764404296875
1638746342283889400,6.645889404296875,-0.9736480712890625,-0.0880889892578125,0.092254638671875
1638746342293911300,6.655911376953125,-0.9781646728515625,-0.085784912109375,0.0926361083984375
1638746342303933200,6.66593310546875,-0.9862518310546875,-0.0842742919921875,0.0910491943359375
1638746342313955300,6.675955322265625,-0.995330810546875,-0.083770751953125,0.0777587890625
1638746342323976200,6.68597607421875,-0.9988250732421875,-0.082000732421875,0.059844970703125
1638746342333998000,6.695998046875,-0.998687744140625,-0.077972412109375,0.0439453125
1638746342344020200,6.706020263671875,-0.995819091796875,-0.0726165771484375,0.031524658203125
1638746342354042400,6.71604248046875,-0.9938201904296875,-0.0679931640625,0.0218963623046875
1638746342364064300,6.726064208984375,-0.9951629638671875,-0.0691070556640625,0.021514892578125
1638746342374086100,6.736086181640625,-0.9968414306640625,-0.0756072998046875,0.0289459228515625
1638746342384107000,6.74610693359375,-0.9987945556640625,-0.0798187255859375,0.0399169921875
1638746342394129200,6.756129150390625,-1,-0.083648681640625,0.0527496337890625
1638746342404151300,6.7661513671875,-1.00067138671875,-0.0847930908203125,0.061248779296875
1638746342414173200,6.776173095703125,-0.998138427734375,-0.084716796875,0.070220947265625
1638746342424195300,6.7861953125,-0.992584228515625,-0.0847625732421875,0.0754547119140625
1638746342434216200,6.79621630859375,-0.987640380859375,-0.0868682861328125,0.077423095703125
1638746342444238000,6.806238037109375,-0.9839630126953125,-0.089111328125,0.077545166015625
1638746342454260200,6.81626025390625,-0.9816741943359375,-0.0902252197265625,0.0769195556640625
1638746342464282400,6.826282470703125,-0.98272705078125,-0.0894012451171875,0.07525634765625
1638746342474304300,6.83630419921875,-0.9818115234375,-0.088623046875,0.0727386474609375
1638746342484326100,6.846326171875,-0.981201171875,-0.087310791015625,0.073272705078125
1638746342494347500,6.856347412109375,-0.9792327880859375,-0.08709716796875,0.07366943359375
1638746342504369700,6.86636962890625,-0.97955322265625,-0.0859832763671875,0.0724334716796875
1638746342514391600,6.8763916015625,-0.98138427734375,-0.086151123046875,0.073211669921875
1638746342524413700,6.88641357421875,-0.9827117919921875,-0.0854949951171875,0.0726776123046875
1638746342534435600,6.896435546875,-0.9834136962890625,-0.0851898193359375,0.072723388671875
1638746342544456700,6.906456787109375,-0.9832611083984375,-0.0853118896484375,0.0723419189453125
1638746342554478600,6.916478515625,-0.983306884765625,-0.085906982421875,0.0699005126953125
1638746342564500500,6.92650048828125,-0.9844512939453125,-0.0883026123046875,0.0666046142578125
1638746342574522600,6.936522705078125,-0.98577880859375,-0.0901641845703125,0.06231689453125
1638746342584544800,6.946544677734375,-0.986968994140625,-0.0878143310546875,0.0588531494140625
1638746342594565600,6.956565673828125,-0.985198974609375,-0.0853424072265625,0.05706787109375
1638746342604587500,6.96658740234375,-0.9824066162109375,-0.083160400390625,0.055145263671875
1638746342614609700,6.976609619140625,-0.979705810546875,-0.0821075439453125,0.0527191162109375
1638746342624631600,6.986631591796875,-0.9801177978515625,-0.081451416015625,0.054290771484375
1638746342634653700,6.99665380859375,-0.9830474853515625,-0.0815887451171875,0.0555877685546875
1638746342644675800,7.00667578125,-0.98638916015625,-0.081878662109375,0.05633544921875
1638746342654696700,7.01669677734375,-0.9875030517578125,-0.0839080810546875,0.057586669921875
1638746342664718600,7.026718505859375,-0.98614501953125,-0.0860748291015625,0.0616302490234375
1638746342674740500,7.036740478515625,-0.9836578369140625,-0.09014892578125,0.06610107421875
1638746342684762600,7.0467626953125,-0.9835052490234375,-0.0936279296875,0.0716400146484375
1638746342694784800,7.05678466796875,-0.981414794921875,-0.0950164794921875,0.0746307373046875
1638746342704805600,7.0668056640625,-0.9796905517578125,-0.0935211181640625,0.0762786865234375
1638746342714827500,7.07682763671875,-0.98004150390625,-0.090667724609375,0.0768585205078125
1638746342724849700,7.086849609375,-0.980194091796875,-0.0883941650390625,0.076904296875
1638746342734871600,7.09687158203125,-0.981201171875,-0.0887298583984375,0.07623291015625
1638746342744893400,7.1068935546875,-0.98284912109375,-0.087738037109375,0.0774993896484375
1638746342754915800,7.116915771484375,-0.9855804443359375,-0.08660888671875,0.075958251953125
1638746342764936700,7.126936767578125,-0.98590087890625,-0.0854949951171875,0.073394775390625
1638746342774958600,7.13695849609375,-0.9856109619140625,-0.0866851806640625,0.071197509765625
1638746342784980500,7.14698046875,-0.983795166015625,-0.0860137939453125,0.069427490234375
1638746342795002600,7.157002685546875,-0.98175048828125,-0.0872650146484375,0.0656585693359375
1638746342805024500,7.1670244140625,-0.9826507568359375,-0.0869903564453125,0.064605712890625
1638746342815045600,7.177045654296875,-0.9847564697265625,-0.086639404296875,0.066009521484375
1638746342825067500,7.187067626953125,-0.9872283935546875,-0.0850067138671875,0.0682830810546875
1638746342835089700,7.197089599609375,-0.987152099609375,-0.083984375,0.0676422119140625
1638746342845111600,7.207111572265625,-0.984832763671875,-0.0832977294921875,0.0676422119140625
1638746342855133400,7.217133544921875,-0.98297119140625,-0.084136962890625,0.0667266845703125
1638746342865154600,7.227154541015625,-0.9841156005859375,-0.0847320556640625,0.0677642822265625
1638746342875176700,7.2371767578125,-0.98516845703125,-0.0867156982421875,0.068572998046875
1638746342885198600,7.247198486328125,-0.9864959716796875,-0.08819580078125,0.0682373046875
1638746342895220500,7.257220458984375,-0.986358642578125,-0.0866851806640625,0.067962646484375
1638746342905242600,7.26724267578125,-0.985137939453125,-0.0861053466796875,0.0675811767578125
1638746342915263700,7.277263671875,-0.9844207763671875,-0.0848236083984375,0.067626953125
1638746342925285600,7.28728564453125,-0.9835662841796875,-0.085540771484375,0.067291259765625
1638746342935307800,7.297307861328125,-0.98583984375,-0.08489990234375,0.0677032470703125
1638746342945329700,7.30732958984375,-0.9869842529296875,-0.08489990234375,0.068634033203125
1638746342955351600,7.3173515625,-0.9866790771484375,-0.0845184326171875,0.0693817138671875
1638746342965373400,7.32737353515625,-0.98388671875,-0.083740234375,0.0692138671875
1638746342975394800,7.337394775390625,-0.9828643798828125,-0.083831787109375,0.0702667236328125
1638746342985416700,7.347416748046875,-0.9825897216796875,-0.0865631103515625,0.0705718994140625
1638746342995438600,7.3574384765625,-0.98236083984375,-0.087432861328125,0.06951904296875
1638746343005460700,7.367460693359375,-0.9830169677734375,-0.087127685546875,0.0683135986328125
1638746343015482600,7.377482666015625,-0.9835357666015625,-0.0875091552734375,0.0690155029296875
1638746343025503700,7.387503662109375,-0.983642578125,-0.0882110595703125,0.07000732421875
1638746343035525600,7.397525634765625,-0.9825592041015625,-0.0885772705078125,0.0695037841796875
1638746343045547800,7.4075478515625,-0.982818603515625,-0.08807373046875,0.070098876953125
1638746343055569700,7.417569580078125,-0.9849853515625,-0.0882110595703125,0.0697784423828125
1638746343065591600,7.427591552734375,-0.9874114990234375,-0.08929443359375,0.06884765625
1638746343075613700,7.43761376953125,-0.987945556640625,-0.0878448486328125,0.0696563720703125
1638746343085634800,7.447634765625,-0.986602783203125,-0.0860748291015625,0.0673370361328125
1638746343095656700,7.45765673828125,-0.9836883544921875,-0.0836944580078125,0.06524658203125
1638746343105678600,7.4676787109375,-0.98284912109375,-0.08477783203125,0.0650634765625
1638746343115700700,7.47770068359375,-0.983306884765625,-0.0834503173828125,0.0670166015625
1638746343125722600,7.48772265625,-0.9848480224609375,-0.08551025390625,0.06732177734375
1638746343135743700,7.49774365234375,-0.98583984375,-0.0860443115234375,0.0676422119140625
1638746343145765600,7.507765625,-0.98614501953125,-0.0867156982421875,0.0679473876953125
1638746343155787800,7.517787841796875,-0.9850006103515625,-0.0863494873046875,0.06829833984375
1638746343165809700,7.5278095703125,-0.9840545654296875,-0.0884552001953125,0.0679931640625
1638746343175831600,7.53783154296875,-0.985198974609375,-0.088714599609375,0.0675201416015625
1638746343185852400,7.547852294921875,-0.984832763671875,-0.0895233154296875,0.0652923583984375
1638746343195874800,7.557874755859375,-0.9853668212890625,-0.0875091552734375,0.0641326904296875
1638746343205896700,7.567896728515625,-0.98516845703125,-0.0858306884765625,0.0640869140625
1638746343215918600,7.577918701171875,-0.9831390380859375,-0.0830078125,0.0656585693359375
1638746343225940700,7.587940673828125,-0.9825592041015625,-0.084320068359375,0.06573486328125
1638746343235962600,7.597962646484375,-0.9831695556640625,-0.0838775634765625,0.066925048828125
1638746343245983500,7.6079833984375,-0.9841156005859375,-0.085968017578125,0.06787109375
1638746343256005600,7.618005615234375,-0.9848785400390625,-0.0852813720703125,0.068206787109375
1638746343266027800,7.62802783203125,-0.98516845703125,-0.086090087890625,0.069305419921875
1638746343276049700,7.638049560546875,-0.9833221435546875,-0.0862884521484375,0.06964111328125
1638746343286071600,7.648071533203125,-0.98187255859375,-0.0872650146484375,0.069000244140625
1638746343296092400,7.658092529296875,-0.9828338623046875,-0.0877838134765625,0.069549560546875
1638746343306114600,7.668114501953125,-0.984527587890625,-0.0886077880859375,0.068756103515625
1638746343316136700,7.67813671875,-0.984954833984375,-0.088531494140625,0.068939208984375
1638746343326158600,7.68815869140625,-0.984954833984375,-0.0868377685546875,0.067535400390625
1638746343336180700,7.6981806640625,-0.9831085205078125,-0.0853424072265625,0.0672149658203125
1638746343346201600,7.70820166015625,-0.9831390380859375,-0.0860595703125,0.068206787109375
1638746343356223500,7.718223388671875,-0.9828338623046875,-0.085418701171875,0.0689849853515625
1638746343366245600,7.72824560546875,-0.983306884765625,-0.084625244140625,0.0688629150390625
1638746343376267800,7.738267822265625,-0.983489990234375,-0.083221435546875,0.0676727294921875
1638746343386289700,7.74828955078125,-0.984466552734375,-0.081329345703125,0.06640625
1638746343396311600,7.7583115234375,-0.98504638671875,-0.082183837890625,0.0664215087890625
1638746343406332700,7.768332763671875,-0.985382080078125,-0.0840911865234375,0.0679779052734375
1638746343416354600,7.7783544921875,-0.985382080078125,-0.0865020751953125,0.068511962890625
1638746343426376700,7.788376708984375,-0.986572265625,-0.0880584716796875,0.0688323974609375
1638746343436398600,7.798398681640625,-0.9866943359375,-0.08929443359375,0.0668792724609375
1638746343446420700,7.808420654296875,-0.9864654541015625,-0.089019775390625,0.06610107421875
1638746343456441600,7.818441650390625,-0.98529052734375,-0.0874481201171875,0.0669403076171875
1638746343466463500,7.82846337890625,-0.983184814453125,-0.0869598388671875,0.0667724609375
1638746343476485600,7.838485595703125,-0.982025146484375,-0.085906982421875,0.065460205078125
1638746343486507800,7.8485078125,-0.98297119140625,-0.0855560302734375,0.0652618408203125
1638746343496530200,7.8585302734375,-0.9846954345703125,-0.08477783203125,0.0646820068359375
1638746343506551000,7.868551025390625,-0.9865875244140625,-0.0830841064453125,0.065216064453125
1638746343516573200,7.8785732421875,-0.987396240234375,-0.0836944580078125,0.0666961669921875
1638746343526595000,7.888594970703125,-0.98419189453125,-0.0843048095703125,0.0693359375
1638746343536617000,7.898616943359375,-0.9843597412109375,-0.0860443115234375,0.07073974609375
1638746343546638800,7.908638916015625,-0.984771728515625,-0.0870819091796875,0.0697479248046875
1638746343556661200,7.9186611328125,-0.984710693359375,-0.0883636474609375,0.0684356689453125
1638746343566682000,7.92868212890625,-0.98291015625,-0.0871124267578125,0.069580078125
1638746343576704000,7.9387041015625,-0.980621337890625,-0.0857696533203125,0.069549560546875
1638746343586726100,7.94872607421875,-0.9767913818359375,-0.085174560546875,0.0701904296875
1638746343596748000,7.958748046875,-0.973541259765625,-0.0861053466796875,0.0712127685546875
1638746343606770000,7.96877001953125,-0.9776763916015625,-0.0868072509765625,0.074005126953125
1638746343616791000,7.978791015625,-0.9862823486328125,-0.0912322998046875,0.0732269287109375
1638746343626813200,7.988813232421875,-0.9925384521484375,-0.0901947021484375,0.0695343017578125
1638746343636835000,7.9988349609375,-0.993194580078125,-0.0862579345703125,0.0615386962890625
1638746343646857000,8.00885693359375,-0.9906463623046875,-0.08514404296875,0.0519561767578125
1638746343656879000,8.018879150390624,-0.98638916015625,-0.088653564453125,0.0401458740234375
1638746343666900200,8.028900146484375,-0.980224609375,-0.087493896484375,0.0337982177734375
1638746343676922000,8.038922119140626,-0.98248291015625,-0.0808563232421875,0.033660888671875
1638746343686944000,8.048944091796875,-0.9899139404296875,-0.0782012939453125,0.0406036376953125
1638746343696966100,8.058966064453125,-0.9941864013671875,-0.0814971923828125,0.054046630859375
1638746343706988000,8.068988037109374,-0.990875244140625,-0.077178955078125,0.0632171630859375
1638746343717010000,8.079010009765625,-0.98760986328125,-0.0796356201171875,0.0681304931640625
1638746343727031000,8.089031005859376,-0.9867706298828125,-0.083160400390625,0.0724334716796875
1638746343737053200,8.09905322265625,-0.9876708984375,-0.0847320556640625,0.071868896484375
1638746343747075000,8.109074951171875,-0.987091064453125,-0.0853729248046875,0.0723419189453125
1638746343757097000,8.119096923828126,-0.9881439208984375,-0.0855255126953125,0.0713958740234375
1638746343767119000,8.129119140625,-0.98724365234375,-0.0870513916015625,0.0706939697265625
1638746343777140200,8.13914013671875,-0.986541748046875,-0.089111328125,0.06939697265625
1638746343787162000,8.149162109375,-0.984893798828125,-0.090362548828125,0.066680908203125
1638746343797184000,8.15918408203125,-0.9866180419921875,-0.089508056640625,0.0661468505859375
1638746343807206100,8.1692060546875,-0.9902496337890625,-0.0870361328125,0.067657470703125
1638746343817228000,8.17922802734375,-0.988677978515625,-0.082244873046875,0.0706634521484375
1638746343827249200,8.189249267578125,-0.9931640625,-0.0858001708984375,0.068756103515625
1638746343837271000,8.19927099609375,-0.9911041259765625,-0.0845794677734375,0.0691375732421875
1638746343847293200,8.209293212890625,-0.98553466796875,-0.083892822265625,0.0691070556640625
1638746343857315000,8.219315185546876,-0.983245849609375,-0.083343505859375,0.0699615478515625
1638746343867337000,8.2293369140625,-0.98388671875,-0.0819549560546875,0.0709686279296875
1638746343877359000,8.239359130859375,-0.984100341796875,-0.081298828125,0.0728302001953125
1638746343887380200,8.249380126953126,-0.9828948974609375,-0.081787109375,0.07672119140625
1638746343897402000,8.259402099609375,-0.9804229736328125,-0.08428955078125,0.080902099609375
1638746343907424000,8.269424072265625,-0.9780731201171875,-0.088134765625,0.0830841064453125
1638746343917446100,8.279446044921874,-0.976806640625,-0.089569091796875,0.0874786376953125
1638746343927468000,8.289468017578125,-0.9765777587890625,-0.0880889892578125,0.08819580078125
1638746343937489200,8.2994892578125,-0.978607177734375,-0.08648681640625,0.087493896484375
1638746343947511300,8.30951123046875,-0.97869873046875,-0.0866851806640625,0.086334228515625
1638746343957533200,8.319533203125,-0.976837158203125,-0.0868377685546875,0.083343505859375
1638746343967555000,8.32955517578125,-0.9771881103515625,-0.08489990234375,0.07928466796875
1638746343977577000,8.339576904296875,-0.98162841796875,-0.0830535888671875,0.0747222900390625
1638746343987598000,8.34959814453125,-0.9886016845703125,-0.0814971923828125,0.0716552734375
1638746343997620200,8.3596201171875,-0.99163818359375,-0.078826904296875,0.070587158203125
1638746344007642000,8.36964208984375,-0.991119384765625,-0.078521728515625,0.06854248046875
1638746344017664300,8.379664306640626,-0.98773193359375,-0.0783233642578125,0.066253662109375
1638746344027686100,8.38968603515625,-0.9867706298828125,-0.079315185546875,0.0621185302734375
1638746344037707000,8.39970703125,-0.9889068603515625,-0.080322265625,0.0608367919921875
1638746344047729000,8.40972900390625,-0.9904937744140625,-0.081939697265625,0.0597076416015625
1638746344057751300,8.419751220703125,-0.993408203125,-0.0803375244140625,0.059814453125
1638746344067773200,8.429773193359376,-0.990478515625,-0.0806121826171875,0.060791015625
1638746344077795000,8.439795166015625,-0.987030029296875,-0.08038330078125,0.062347412109375
1638746344087817200,8.449817138671875,-0.9839324951171875,-0.083160400390625,0.0665435791015625
1638746344097838000,8.459838134765626,-0.98291015625,-0.0840606689453125,0.0715179443359375
1638746344107860000,8.46985986328125,-0.9839019775390625,-0.08392333984375,0.0757293701171875
1638746344117882000,8.479882080078125,-0.9853515625,-0.08428955078125,0.0812530517578125
1638746344127904300,8.489904296875,-0.9833526611328125,-0.0866241455078125,0.085113525390625
1638746344137926100,8.499926025390625,-0.981658935546875,-0.0874786376953125,0.0889892578125
1638746344147947000,8.509947021484376,-0.9789276123046875,-0.0909271240234375,0.091522216796875
1638746344157969000,8.519968994140624,-0.9773406982421875,-0.09259033203125,0.09307861328125
1638746344167991000,8.529990966796875,-0.9757843017578125,-0.0922088623046875,0.095123291015625
1638746344178013200,8.54001318359375,-0.97503662109375,-0.0882720947265625,0.101043701171875
1638746344188035000,8.55003515625,-0.971771240234375,-0.086700439453125,0.1035308837890625
1638746344198056000,8.560055908203125,-0.9658203125,-0.0829925537109375,0.1012115478515625
1638746344208078000,8.570078125,-0.9658050537109375,-0.07659912109375,0.098175048828125
1638746344218100000,8.580099853515625,-0.968505859375,-0.0714111328125,0.0970306396484375
1638746344228122000,8.5901220703125,-0.9694671630859375,-0.0800628662109375,0.0946502685546875
1638746344238144300,8.600144287109375,-0.9870452880859375,-0.090545654296875,0.0784454345703125
1638746344248165000,8.6101650390625,-1.0001983642578125,-0.083984375,0.046630859375
1638746344258187000,8.62018701171875,-1.0302581787109375,-0.0943145751953125,0.013885498046875
1638746344268209000,8.630208984375,-1.0444793701171875,-0.100860595703125,-0.0081939697265625
1638746344278231000,8.64023095703125,-1.0351104736328125,-0.0990447998046875,0.0006561279296875
1638746344288253200,8.650253173828125,-0.9787445068359375,-0.0858001708984375,0.0561065673828125
1638746344298275000,8.660275146484375,-0.9314117431640625,-0.09429931640625,0.10052490234375
1638746344308296000,8.6702958984375,-0.9209442138671875,-0.0940399169921875,0.1074066162109375
1638746344318318000,8.680318115234375,-0.95001220703125,-0.080169677734375,0.0961761474609375
1638746344328340000,8.690340087890625,-0.9938507080078125,-0.070098876953125,0.0927276611328125
1638746344338361900,8.70036181640625,-1.0166473388671875,-0.0567626953125,0.105987548828125
1638746344348384300,8.71038427734375,-1.015106201171875,-0.0489959716796875,0.1188507080078125
1638746344358405000,8.720405029296876,-0.99713134765625,-0.0558013916015625,0.1120147705078125
1638746344368427000,8.730427001953124,-0.9734649658203125,-0.066680908203125,0.0915374755859375
1638746344378449000,8.740448974609375,-0.960479736328125,-0.0776519775390625,0.0754241943359375
1638746344388471000,8.750470947265624,-0.961456298828125,-0.089996337890625,0.0707550048828125
1638746344398493000,8.760492919921875,-0.9749603271484375,-0.101287841796875,0.068634033203125
1638746344408514000,8.77051416015625,-0.99212646484375,-0.1055145263671875,0.066314697265625
1638746344418536200,8.7805361328125,-1.0013885498046875,-0.1052093505859375,0.0646820068359375
1638746344428558000,8.79055810546875,-0.998046875,-0.098846435546875,0.0674591064453125
1638746344438580000,8.800580078125,-0.987213134765625,-0.0895538330078125,0.0746307373046875
1638746344448602000,8.81060205078125,-0.977081298828125,-0.0806121826171875,0.0824127197265625
1638746344458624000,8.8206240234375,-0.97064208984375,-0.0735321044921875,0.0867919921875
1638746344468645000,8.83064501953125,-0.9752655029296875,-0.0697021484375,0.0892791748046875
1638746344478667000,8.8406669921875,-0.9841156005859375,-0.0701446533203125,0.0890655517578125
1638746344488689200,8.850689208984376,-0.98883056640625,-0.0736236572265625,0.08636474609375
1638746344498710800,8.860710693359374,-0.98797607421875,-0.07818603515625,0.0846099853515625
1638746344508733000,8.87073291015625,-0.9843597412109375,-0.0834808349609375,0.0831756591796875
1638746344518754000,8.880754150390626,-0.9802093505859375,-0.08807373046875,0.08099365234375
1638746344528776000,8.89077587890625,-0.9799652099609375,-0.090911865234375,0.0789337158203125
1638746344538797800,8.9007978515625,-0.981964111328125,-0.0902252197265625,0.0788726806640625
1638746344548820000,8.910820068359374,-0.9828643798828125,-0.0882110595703125,0.079132080078125
1638746344558841900,8.920841796875,-0.985107421875,-0.0855865478515625,0.0812225341796875
1638746344568863000,8.930863037109376,-0.982757568359375,-0.08306884765625,0.0814361572265625
1638746344578884900,8.940884765625,-0.9835205078125,-0.0817718505859375,0.08099365234375
1638746344588907000,8.950906982421875,-0.983551025390625,-0.0819854736328125,0.082611083984375
1638746344598929000,8.960928955078124,-0.9852142333984375,-0.0836029052734375,0.0822296142578125
1638746344608950800,8.97095068359375,-0.9861297607421875,-0.083831787109375,0.08209228515625
1638746344618972200,8.98097216796875,-0.985321044921875,-0.0836181640625,0.082061767578125
1638746344628994000,8.990994140625,-0.982879638671875,-0.08453369140625,0.081634521484375
1638746344639016000,9.001015869140625,-0.9811859130859375,-0.0867919921875,0.081573486328125
1638746344649037800,9.011037841796876,-0.982421875,-0.0879669189453125,0.0824432373046875
1638746344659060000,9.02106005859375,-0.98602294921875,-0.0867919921875,0.08184814453125
1638746344669081900,9.031081787109375,-0.9883575439453125,-0.08380126953125,0.0811767578125
1638746344679103000,9.04110302734375,-0.986419677734375,-0.0825958251953125,0.0805206298828125
1638746344689125000,9.051125,-0.9835052490234375,-0.0801239013671875,0.080657958984375
1638746344699147000,9.06114697265625,-0.9817352294921875,-0.0814971923828125,0.078643798828125
1638746344709169000,9.0711689453125,-0.9821624755859375,-0.0813751220703125,0.081146240234375
1638746344719191000,9.08119091796875,-0.9838714599609375,-0.0833740234375,0.0815582275390625
1638746344729212200,9.091212158203126,-0.9859771728515625,-0.08258056640625,0.0836944580078125
1638746344739234000,9.101234130859375,-0.9838714599609375,-0.0821533203125,0.0835418701171875
1638746344749256000,9.111255859375,-0.98114013671875,-0.082275390625,0.0847015380859375
1638746344759278000,9.121278076171874,-0.9801177978515625,-0.0836944580078125,0.0846710205078125
1638746344769300000,9.131300048828125,-0.981536865234375,-0.0826873779296875,0.0841827392578125
1638746344779320800,9.14132080078125,-0.9842071533203125,-0.0838470458984375,0.0838165283203125
1638746344789343000,9.151343017578125,-0.9849700927734375,-0.0814361572265625,0.0834197998046875
1638746344799365000,9.161365234375,-0.9844970703125,-0.0812835693359375,0.0828704833984375
1638746344809387000,9.171386962890624,-0.984405517578125,-0.08062744140625,0.081329345703125
1638746344819409000,9.181408935546875,-0.9828338623046875,-0.0818634033203125,0.0807037353515625
1638746344829429800,9.1914296875,-0.9831390380859375,-0.0814056396484375,0.080413818359375
1638746344839452000,9.201451904296874,-0.9848480224609375,-0.0831451416015625,0.078125
1638746344849474000,9.21147412109375,-0.985137939453125,-0.082733154296875,0.077239990234375
1638746344859496000,9.221495849609376,-0.9848175048828125,-0.08380126953125,0.0769195556640625
1638746344869518000,9.23151806640625,-0.983489990234375,-0.0831756591796875,0.0770263671875
1638746344879540000,9.2415400390625,-0.9822540283203125,-0.0839080810546875,0.0777435302734375
1638746344889560800,9.251560791015624,-0.9828033447265625,-0.084716796875,0.0790863037109375
1638746344899583000,9.2615830078125,-0.9859161376953125,-0.084747314453125,0.0792388916015625
1638746344909605000,9.271605224609376,-0.9877471923828125,-0.0839996337890625,0.080596923828125
1638746344919627000,9.281626953125,-0.9857177734375,-0.081817626953125,0.0812225341796875
1638746344929649000,9.29164892578125,-0.9837493896484375,-0.0823211669921875,0.0822601318359375
1638746344939669800,9.301669677734376,-0.9826812744140625,-0.0843505859375,0.0833587646484375
1638746344949692000,9.31169189453125,-0.980377197265625,-0.08416748046875,0.08306884765625
1638746344959714000,9.321714111328125,-0.9790191650390625,-0.0852508544921875,0.082763671875
1638746344969736000,9.33173583984375,-0.97998046875,-0.0847930908203125,0.0828857421875
1638746344979758000,9.341758056640625,-0.98309326171875,-0.083770751953125,0.082000732421875
1638746344989779000,9.351779052734376,-0.98260498046875,-0.08258056640625,0.0812530517578125
1638746344999800800,9.36180078125,-0.9844818115234375,-0.0802764892578125,0.08172607421875
1638746345009822700,9.37182275390625,-0.9851837158203125,-0.08197021484375,0.0835723876953125
1638746345019845000,9.38184521484375,-0.9861602783203125,-0.0823974609375,0.083831787109375
1638746345029867000,9.391866943359375,-0.985260009765625,-0.083251953125,0.0821075439453125
1638746345039888000,9.401887939453125,-0.9843597412109375,-0.08184814453125,0.0812530517578125
1638746345049910000,9.411909912109374,-0.982574462890625,-0.082305908203125,0.0785675048828125
1638746345059932000,9.421931884765625,-0.98199462890625,-0.0823974609375,0.078643798828125
1638746345069953800,9.431953857421876,-0.9825592041015625,-0.0836944580078125,0.0775909423828125
1638746345079976000,9.441975830078125,-0.9828338623046875,-0.08319091796875,0.0776214599609375
1638746345089997000,9.4519970703125,-0.9842071533203125,-0.0829315185546875,0.077972412109375
1638746345100019000,9.46201904296875,-0.9852142333984375,-0.0809326171875,0.0786895751953125
1638746345110040800,9.472040771484375,-0.9847869873046875,-0.0799102783203125,0.0802154541015625
1638746345120063000,9.48206298828125,-0.98480224609375,-0.081695556640625,0.0809783935546875
1638746345130084900,9.4920849609375,-0.983734130859375,-0.0852813720703125,0.0811767578125
1638746345140107000,9.50210693359375,-0.982757568359375,-0.086212158203125,0.0806121826171875
1638746345150127900,9.5121279296875,-0.9830169677734375,-0.08642578125,0.0772552490234375
1638746345160150000,9.52214990234375,-0.98577880859375,-0.08514404296875,0.0742340087890625
1638746345170172000,9.532171875,-0.986663818359375,-0.0853118896484375,0.0735626220703125
1638746345180193800,9.54219384765625,-0.9863128662109375,-0.0824432373046875,0.07476806640625
1638746345190216200,9.55221630859375,-0.9856719970703125,-0.0820159912109375,0.076995849609375
1638746345200237000,9.562237060546876,-0.984161376953125,-0.0830535888671875,0.078033447265625
1638746345210259000,9.572259033203125,-0.984161376953125,-0.0846099853515625,0.0785064697265625
1638746345220280800,9.58228076171875,-0.984283447265625,-0.0845947265625,0.07904052734375
1638746345230303000,9.592302978515624,-0.9844512939453125,-0.0848846435546875,0.0814208984375
1638746345240324900,9.602324951171875,-0.9828338623046875,-0.0861663818359375,0.0833740234375
1638746345250346000,9.612345947265625,-0.9798431396484375,-0.0872955322265625,0.085235595703125
1638746345260368000,9.622367919921874,-0.9791412353515625,-0.0876007080078125,0.085052490234375
1638746345270390000,9.63239013671875,-0.9840087890625,-0.0869903564453125,0.0829925537109375
1638746345280412000,9.642411865234376,-0.9884033203125,-0.084442138671875,0.082305908203125
1638746345290433800,9.652433837890625,-0.9892425537109375,-0.0844573974609375,0.082427978515625
1638746345300455000,9.662454833984375,-0.9858856201171875,-0.0831756591796875,0.0804443359375
1638746345310477000,9.67247705078125,-0.9820404052734375,-0.0849609375,0.0780792236328125
1638746345320499000,9.6824990234375,-0.9802093505859375,-0.0867919921875,0.0759124755859375
1638746345330520800,9.692520751953126,-0.9833831787109375,-0.086944580078125,0.0746307373046875
1638746345340543000,9.70254296875,-0.9875030517578125,-0.08526611328125,0.075225830078125
1638746345350564900,9.71256494140625,-0.989410400390625,-0.082275390625,0.079345703125
1638746345360586000,9.7225859375,-0.9886474609375,-0.08203125,0.0825653076171875
1638746345370607900,9.73260791015625,-0.9863433837890625,-0.0819854736328125,0.08441162109375
1638746345380630000,9.742630126953125,-0.984375,-0.0808258056640625,0.0811614990234375
1638746345390652000,9.75265185546875,-0.98358154296875,-0.080780029296875,0.0777435302734375
1638746345400673800,9.762673828125,-0.983856201171875,-0.080322265625,0.076416015625
1638746345410695200,9.772695068359376,-0.9858551025390625,-0.080078125,0.07763671875
1638746345420717000,9.782717041015625,-0.9853057861328125,-0.0827484130859375,0.0778045654296875
1638746345430739000,9.792739013671875,-0.9824676513671875,-0.08502197265625,0.07989501953125
1638746345440760800,9.8027607421875,-0.9830169677734375,-0.0873565673828125,0.082275390625
1638746345450783000,9.812782958984375,-0.9833831787109375,-0.08941650390625,0.082122802734375
1638746345460804000,9.82280419921875,-0.9840545654296875,-0.0901641845703125,0.0832366943359375
1638746345470826000,9.832825927734374,-0.981597900390625,-0.0889892578125,0.084075927734375
1638746345480848100,9.84284814453125,-0.9805755615234375,-0.0889434814453125,0.08447265625
1638746345490870000,9.8528701171875,-0.9793853759765625,-0.089080810546875,0.0857391357421875
1638746345500892000,9.862891845703125,-0.9803466796875,-0.0889434814453125,0.086090087890625
1638746345510912800,9.872912841796875,-0.9826812744140625,-0.0889892578125,0.086334228515625
1638746345520935000,9.882934814453124,-0.9860992431640625,-0.0887298583984375,0.0843505859375
1638746345530956800,9.892956787109375,-0.9882049560546875,-0.08673095703125,0.0821075439453125
1638746345540979000,9.90297900390625,-0.9871063232421875,-0.08636474609375,0.080596923828125
1638746345551000800,9.913000732421875,-0.9852294921875,-0.0884552001953125,0.080078125
1638746345561021700,9.923021728515625,-0.980224609375,-0.0901031494140625,0.081451416015625
1638746345571043800,9.9330439453125,-0.9770050048828125,-0.0894317626953125,0.08074951171875
1638746345581066000,9.94306591796875,-0.975830078125,-0.087371826171875,0.082855224609375
1638746345591087900,9.953087890625,-0.97723388671875,-0.0833740234375,0.085723876953125
1638746345601109800,9.96310986328125,-0.9818115234375,-0.080902099609375,0.087432861328125
1638746345611132000,9.9731318359375,-0.985198974609375,-0.079986572265625,0.089324951171875
1638746345621152800,9.98315283203125,-0.988861083984375,-0.0817108154296875,0.0884857177734375
1638746345631175000,9.9931748046875,-0.9903411865234375,-0.0815887451171875,0.0878143310546875
1638746345641196800,10.00319677734375,-0.9914703369140625,-0.083099365234375,0.0807952880859375
1638746345651219000,10.013218994140624,-0.9886322021484375,-0.0860748291015625,0.0738372802734375
1638746345661240800,10.02324072265625,-0.97821044921875,-0.0906982421875,0.07330322265625
1638746345671261700,10.03326171875,-0.9661865234375,-0.0992431640625,0.078125
1638746345681283800,10.043283935546874,-0.9584197998046875,-0.0991058349609375,0.087005615234375
1638746345691306000,10.053305908203125,-0.9608917236328125,-0.08642578125,0.099151611328125
1638746345701328000,10.063327880859376,-0.976531982421875,-0.0799102783203125,0.1102142333984375
1638746345711349800,10.073349853515625,-0.9921417236328125,-0.0778961181640625,0.1196136474609375
1638746345721371000,10.083370849609375,-0.9996490478515625,-0.07135009765625,0.11639404296875
1638746345731392800,10.093392822265624,-1.0034027099609375,-0.0676727294921875,0.0993194580078125
1638746345741415000,10.103414794921875,-1.00408935546875,-0.067169189453125,0.0733642578125
1638746345751437000,10.11343701171875,-0.9940185546875,-0.071014404296875,0.047607421875
1638746345761459000,10.123458984375,-0.9810028076171875,-0.080535888671875,0.0258941650390625
1638746345771479800,10.133479736328125,-0.973236083984375,-0.0870208740234375,0.015380859375
1638746345781501700,10.143501708984376,-0.977020263671875,-0.084320068359375,0.025421142578125
1638746345791523800,10.15352392578125,-0.98809814453125,-0.0810699462890625,0.0559539794921875
1638746345801546000,10.1635458984375,-0.9940032958984375,-0.0816192626953125,0.084503173828125
1638746345811567900,10.17356787109375,-0.994873046875,-0.0811309814453125,0.10638427734375
1638746345821588700,10.183588623046875,-0.99053955078125,-0.08056640625,0.115264892578125
1638746345831611000,10.19361083984375,-0.9829864501953125,-0.0790863037109375,0.115478515625
1638746345841632800,10.2036328125,-0.976318359375,-0.0807647705078125,0.1116943359375
1638746345851654700,10.213654541015625,-0.970245361328125,-0.085601806640625,0.1058197021484375
1638746345861677000,10.223677001953124,-0.9705657958984375,-0.0900115966796875,0.0969390869140625
1638746345871699000,10.233698974609375,-0.9782562255859375,-0.0921783447265625,0.087677001953125
1638746345881719800,10.2437197265625,-0.98712158203125,-0.0947418212890625,0.07879638671875
1638746345891741700,10.25374169921875,-0.9911346435546875,-0.093109130859375,0.073638916015625
1638746345901763800,10.263763916015625,-0.9891510009765625,-0.0891876220703125,0.072723388671875
1638746345911785700,10.27378564453125,-0.9832916259765625,-0.0859375,0.075958251953125
1638746345921808000,10.283807861328125,-0.9770050048828125,-0.084869384765625,0.08154296875
1638746345931828700,10.293828857421875,-0.975494384765625,-0.0826263427734375,0.0854339599609375
1638746345941851000,10.303850830078124,-0.979156494140625,-0.08209228515625,0.08746337890625
1638746345951872800,10.313872802734375,-0.98516845703125,-0.08154296875,0.08856201171875
1638746345961894700,10.323894775390626,-0.9872283935546875,-0.0809173583984375,0.0893402099609375
1638746345971916800,10.333916748046875,-0.9860076904296875,-0.0815277099609375,0.0891571044921875
1638746345981938000,10.34393798828125,-0.981842041015625,-0.0844573974609375,0.089141845703125
1638746345991959800,10.353959716796876,-0.9794921875,-0.0864105224609375,0.0891265869140625
1638746346001981700,10.363981689453125,-0.980224609375,-0.086639404296875,0.086761474609375
1638746346012003800,10.37400390625,-0.9835968017578125,-0.0862579345703125,0.08477783203125
1638746346022025700,10.384025634765624,-0.984893798828125,-0.08331298828125,0.0822296142578125
1638746346032046800,10.394046875,-0.984771728515625,-0.0800933837890625,0.0800018310546875
1638746346042068700,10.40406884765625,-0.984222412109375,-0.0797271728515625,0.0789947509765625
1638746346052091000,10.4140908203125,-0.982757568359375,-0.0789947509765625,0.0783538818359375
1638746346062112800,10.42411279296875,-0.98541259765625,-0.0784759521484375,0.0782623291015625
1638746346072134700,10.434134765625,-0.9869537353515625,-0.078887939453125,0.0777435302734375
1638746346082156000,10.444156005859375,-0.9873199462890625,-0.0790557861328125,0.0779876708984375
1638746346092178000,10.454177978515625,-0.98553466796875,-0.0801849365234375,0.0788726806640625
1638746346102199800,10.46419970703125,-0.982879638671875,-0.082489013671875,0.0800628662109375
1638746346112221700,10.4742216796875,-0.9820404052734375,-0.0847320556640625,0.0811767578125
1638746346122243800,10.484243896484376,-0.9839324951171875,-0.0867462158203125,0.0814361572265625
1638746346132265000,10.494264892578125,-0.984222412109375,-0.086761474609375,0.0836944580078125
1638746346142286800,10.504286865234375,-0.982818603515625,-0.0847625732421875,0.0840606689453125
1638746346152309000,10.51430908203125,-0.9825592041015625,-0.0830535888671875,0.0842132568359375
1638746346162331000,10.524330810546875,-0.982177734375,-0.081756591796875,0.0860443115234375
1638746346172352800,10.534352783203126,-0.982635498046875,-0.0818939208984375,0.08624267578125
1638746346182374700,10.544374755859375,-0.98406982421875,-0.0813446044921875,0.085601806640625
1638746346192396000,10.55439599609375,-0.984344482421875,-0.0826263427734375,0.0846405029296875
1638746346202418000,10.56441796875,-0.984649658203125,-0.081634521484375,0.083526611328125
1638746346212439800,10.574439697265625,-0.982513427734375,-0.0825653076171875,0.0834503173828125
1638746346222462000,10.5844619140625,-0.9816436767578125,-0.082977294921875,0.0836334228515625
1638746346232483800,10.59448388671875,-0.9810791015625,-0.08428955078125,0.0830535888671875
1638746346242505000,10.6045048828125,-0.982177734375,-0.08428955078125,0.084259033203125
1638746346252526800,10.61452685546875,-0.984283447265625,-0.0850982666015625,0.08319091796875
1638746346262549000,10.624549072265625,-0.9854583740234375,-0.0830535888671875,0.083740234375
1638746346272571000,10.63457080078125,-0.984222412109375,-0.081451416015625,0.084686279296875
1638746346282592800,10.6445927734375,-0.982666015625,-0.0813140869140625,0.0849456787109375
1638746346292613600,10.654613525390625,-0.9815673828125,-0.0830078125,0.084625244140625
1638746346302636000,10.664635986328125,-0.9823455810546875,-0.08258056640625,0.084625244140625
1638746346312658000,10.674657958984374,-0.984344482421875,-0.0838623046875,0.08367919921875
1638746346322679800,10.6846796875,-0.98687744140625,-0.082977294921875,0.0843658447265625
1638746346332702000,10.694701904296876,-0.9841766357421875,-0.0833587646484375,0.084686279296875
1638746346342722800,10.704722900390625,-0.9819488525390625,-0.083221435546875,0.084564208984375
1638746346352744700,10.71474462890625,-0.9811859130859375,-0.0850830078125,0.084564208984375
1638746346362766800,10.724766845703124,-0.9819488525390625,-0.084991455078125,0.08428955078125
1638746346372789000,10.7347890625,-0.984832763671875,-0.0843048095703125,0.0841064453125
1638746346382811000,10.744810791015626,-0.9848175048828125,-0.0830535888671875,0.083404541015625
1638746346392831700,10.754831787109374,-0.983795166015625,-0.083251953125,0.0826263427734375
1638746346402853600,10.764853515625,-0.9813995361328125,-0.081817626953125,0.08282470703125
1638746346412875800,10.774875732421876,-0.9820098876953125,-0.0831146240234375,0.0818634033203125
1638746346422898000,10.78489794921875,-0.9828948974609375,-0.082794189453125,0.083160400390625
1638746346432919800,10.794919921875,-0.98455810546875,-0.0835113525390625,0.0821533203125
1638746346442941000,10.80494091796875,-0.9860076904296875,-0.082244873046875,0.083038330078125
1638746346452962800,10.814962890625,-0.9848785400390625,-0.0814208984375,0.0837249755859375
1638746346462984700,10.824984619140626,-0.983062744140625,-0.0809478759765625,0.0830535888671875
1638746346473006800,10.8350068359375,-0.9814453125,-0.0828857421875,0.0837860107421875
1638746346483029000,10.845029052734375,-0.9806976318359375,-0.08355712890625,0.08416748046875
1638746346493049900,10.8550498046875,-0.9841461181640625,-0.0847930908203125,0.0828094482421875
1638746346503071500,10.865071533203125,-0.9852752685546875,-0.0832672119140625,0.0829925537109375
1638746346513093400,10.87509326171875,-0.98492431640625,-0.0838775634765625,0.082763671875
1638746346523115500,10.885115478515624,-0.9828338623046875,-0.0823822021484375,0.0822296142578125
1638746346533137700,10.8951376953125,-0.98272705078125,-0.084014892578125,0.0816192626953125
1638746346543159600,10.90515966796875,-0.9825439453125,-0.08331298828125,0.0830841064453125
1638746346553180700,10.9151806640625,-0.9827728271484375,-0.0829315185546875,0.0829620361328125
1638746346563202600,10.92520263671875,-0.9854736328125,-0.082305908203125,0.0823974609375
1638746346573224400,10.935224365234374,-0.9852752685546875,-0.080230712890625,0.08203125
1638746346583246600,10.94524658203125,-0.9845123291015625,-0.079620361328125,0.0830078125
1638746346593268700,10.955268798828126,-0.9827423095703125,-0.08074951171875,0.083709716796875
1638746346603289600,10.96528955078125,-0.981719970703125,-0.082855224609375,0.0843353271484375
1638746346613311500,10.9753115234375,-0.981475830078125,-0.0834503173828125,0.0834503173828125
1638746346623333600,10.985333740234376,-0.9732513427734375,-0.08172607421875,0.083953857421875
1638746346633355500,10.99535546875,-0.9930877685546875,-0.0895843505859375,0.0865325927734375
1638746346643377700,11.005377685546875,-0.98876953125,-0.0797882080078125,0.084808349609375
1638746346653398500,11.0153984375,-0.985382080078125,-0.082916259765625,0.0863800048828125
1638746346663420700,11.025420654296875,-0.981170654296875,-0.0839996337890625,0.0857696533203125
1638746346673442600,11.035442626953126,-0.9811248779296875,-0.0826568603515625,0.08587646484375
1638746346683464400,11.04546435546875,-0.98394775390625,-0.08343505859375,0.0841522216796875
1638746346693486600,11.055486572265625,-0.9851226806640625,-0.0819549560546875,0.0836639404296875
1638746346703507700,11.0655078125,-0.9822998046875,-0.082183837890625,0.0832061767578125
1638746346713529600,11.075529541015625,-0.9825439453125,-0.0818023681640625,0.08331298828125
1638746346723551500,11.085551513671875,-0.9817047119140625,-0.0830230712890625,0.0833282470703125
1638746346733573600,11.09557373046875,-0.983306884765625,-0.083587646484375,0.083953857421875
1638746346743595500,11.105595458984375,-0.985443115234375,-0.0839080810546875,0.0825347900390625
1638746346753616600,11.11561669921875,-0.984893798828125,-0.0823211669921875,0.0831756591796875
1638746346763638500,11.125638427734375,-0.983154296875,-0.0818023681640625,0.08331298828125
1638746346773660700,11.13566064453125,-0.9823760986328125,-0.0819854736328125,0.083892822265625
1638746346783682600,11.1456826171875,-0.9825897216796875,-0.0826568603515625,0.0841217041015625
1638746346793704400,11.155704345703125,-0.9825592041015625,-0.08294677734375,0.0832977294921875
1638746346803725600,11.1657255859375,-0.9857330322265625,-0.0842437744140625,0.082489013671875
1638746346813747700,11.175747802734374,-0.9861297607421875,-0.08148193359375,0.082275390625
1638746346823769600,11.18576953125,-0.9848175048828125,-0.0816192626953125,0.0814361572265625
1638746346833791500,11.19579150390625,-0.982666015625,-0.0815277099609375,0.082733154296875
1638746346843813600,11.205813720703125,-0.981536865234375,-0.083587646484375,0.0830078125
1638746346853834800,11.215834716796875,-0.983551025390625,-0.083770751953125,0.0841827392578125
1638746346863856600,11.225856689453124,-0.9850616455078125,-0.08343505859375,0.0837554931640625
1638746346873878500,11.23587841796875,-0.98504638671875,-0.0812835693359375,0.0837860107421875
1638746346883900700,11.245900634765626,-0.9847564697265625,-0.0812225341796875,0.08392333984375
1638746346893922600,11.255922607421875,-0.982940673828125,-0.0806427001953125,0.084808349609375
1638746346903944400,11.2659443359375,-0.981597900390625,-0.0831298828125,0.0838775634765625
1638746346913965600,11.275965576171876,-0.9832611083984375,-0.0820465087890625,0.0841827392578125
1638746346923987700,11.28598779296875,-0.9849700927734375,-0.0823822021484375,0.08233642578125
1638746346934009600,11.296009521484375,-0.98663330078125,-0.0805206298828125,0.081634521484375
1638746346944031500,11.306031494140624,-0.98541259765625,-0.0821990966796875,0.081573486328125
1638746346954052600,11.316052490234375,-0.983856201171875,-0.0806427001953125,0.0826568603515625
1638746346964074500,11.326074462890626,-0.9828338623046875,-0.082855224609375,0.083221435546875
1638746346974096600,11.3360966796875,-0.98211669921875,-0.083282470703125,0.084564208984375
1638746346984118800,11.346118896484375,-0.985565185546875,-0.083770751953125,0.083831787109375
1638746346994140700,11.356140625,-0.9856414794921875,-0.0824432373046875,0.0844573974609375
1638746347004162600,11.36616259765625,-0.984100341796875,-0.0828094482421875,0.08404541015625
1638746347014183400,11.376183349609375,-0.9827880859375,-0.0826263427734375,0.0849151611328125
1638746347024205600,11.38620556640625,-0.9805450439453125,-0.083251953125,0.0849761962890625
1638746347034227700,11.396227783203125,-0.9813232421875,-0.0847930908203125,0.0844268798828125
1638746347044249600,11.40624951171875,-0.985015869140625,-0.0841217041015625,0.0826873779296875
1638746347054271700,11.416271728515625,-0.9852447509765625,-0.0829925537109375,0.0821533203125
1638746347064292600,11.426292724609375,-0.984161376953125,-0.0823974609375,0.0828094482421875
1638746347074314500,11.436314453125,-0.982757568359375,-0.082305908203125,0.0824127197265625
1638746347084336600,11.446336669921875,-0.982208251953125,-0.082244873046875,0.0834808349609375
1638746347094358800,11.45635888671875,-0.9831695556640625,-0.0818328857421875,0.0836029052734375
1638746347104380700,11.466380615234375,-0.9856109619140625,-0.082122802734375,0.0824432373046875
1638746347114401500,11.476401611328125,-0.9852447509765625,-0.081939697265625,0.083221435546875
1638746347124423400,11.48642333984375,-0.9852142333984375,-0.0811004638671875,0.08245849609375
1638746347134445600,11.496445556640625,-0.9837493896484375,-0.0811004638671875,0.083770751953125
1638746347144467700,11.5064677734375,-0.9820709228515625,-0.082366943359375,0.0839385986328125
1638746347154489600,11.516489501953124,-0.9821014404296875,-0.084014892578125,0.084686279296875
1638746347164510500,11.526510498046875,-0.9840240478515625,-0.0836334228515625,0.0846710205078125
1638746347174532600,11.53653271484375,-0.9851531982421875,-0.083160400390625,0.084503173828125
1638746347184554500,11.546554443359375,-0.9843902587890625,-0.08203125,0.083709716796875
1638746347194576400,11.556576416015625,-0.98309326171875,-0.080841064453125,0.084747314453125
1638746347204598800,11.566598876953124,-0.9813690185546875,-0.08111572265625,0.0839385986328125
1638746347214619600,11.57661962890625,-0.9816436767578125,-0.082916259765625,0.08380126953125
1638746347224641500,11.5866416015625,-0.983062744140625,-0.0829925537109375,0.082855224609375
1638746347234663400,11.596663330078124,-0.9846343994140625,-0.082489013671875,0.082977294921875
1638746347244685600,11.606685546875,-0.9848480224609375,-0.0811614990234375,0.0832672119140625
1638746347254707500,11.61670751953125,-0.9832305908203125,-0.0809783935546875,0.08233642578125
1638746347264728600,11.626728515625,-0.982421875,-0.0810089111328125,0.083038330078125
1638746347274750500,11.63675048828125,-0.9816131591796875,-0.08319091796875,0.0838775634765625
1638746347284772600,11.646772705078124,-0.9839324951171875,-0.08306884765625,0.0831146240234375
1638746347294794500,11.65679443359375,-0.9849853515625,-0.0841217041015625,0.0825042724609375
1638746347304816400,11.66681640625,-0.98516845703125,-0.082275390625,0.083404541015625
1638746347314837800,11.676837646484374,-0.9841461181640625,-0.0825958251953125,0.0839996337890625
1638746347324859600,11.686859619140625,-0.98345947265625,-0.0821685791015625,0.083831787109375
1638746347334881500,11.696881591796876,-0.98114013671875,-0.0839080810546875,0.0828399658203125
1638746347344903400,11.7069033203125,-0.9832305908203125,-0.08355712890625,0.083251953125
1638746347354925600,11.716925537109375,-0.9848785400390625,-0.0838470458984375,0.0825653076171875
1638746347364946700,11.72694677734375,-0.9850311279296875,-0.0825042724609375,0.0830078125
1638746347374968600,11.736968505859375,-0.9840850830078125,-0.0821380615234375,0.0838165283203125
1638746347384990700,11.74699072265625,-0.98162841796875,-0.081024169921875,0.084075927734375
1638746347395012600,11.7570126953125,-0.981719970703125,-0.0831451416015625,0.0828094482421875
1638746347405034500,11.767034423828125,-0.983306884765625,-0.0818328857421875,0.083648681640625
1638746347415055600,11.7770556640625,-0.9852752685546875,-0.0827178955078125,0.082763671875
1638746347425077800,11.787077880859375,-0.985748291015625,-0.0818939208984375,0.084136962890625
1638746347435099600,11.797099609375,-0.98443603515625,-0.0819549560546875,0.083587646484375
1638746347445121500,11.80712158203125,-0.9829254150390625,-0.0814361572265625,0.0836944580078125
1638746347455143700,11.817143798828125,-0.9817047119140625,-0.082855224609375,0.0835113525390625
1638746347465164500,11.82716455078125,-0.9824981689453125,-0.08282470703125,0.083831787109375
1638746347475186700,11.837186767578125,-0.986328125,-0.0833740234375,0.0831756591796875
1638746347485208600,11.84720849609375,-0.9867095947265625,-0.0830230712890625,0.08306884765625
1638746347495230700,11.857230712890624,-0.9838104248046875,-0.0821533203125,0.0831146240234375
1638746347505252600,11.867252685546875,-0.98260498046875,-0.0823516845703125,0.08380126953125
1638746347515273700,11.877273681640625,-0.98150634765625,-0.0844879150390625,0.08380126953125
1638746347525295600,11.887295654296874,-0.9822235107421875,-0.083526611328125,0.0835113525390625
1638746347535317800,11.89731787109375,-0.985260009765625,-0.08331298828125,0.08380126953125
1638746347545340000,11.90733984375,-0.9863739013671875,-0.0828857421875,0.0836944580078125
1638746347555361800,11.91736181640625,-0.9840850830078125,-0.0817718505859375,0.082794189453125
1638746347565383700,11.9273837890625,-0.9834442138671875,-0.080047607421875,0.0831146240234375
1638746347575404500,11.937404541015624,-0.9827423095703125,-0.0808563232421875,0.08306884765625
1638746347585426700,11.9474267578125,-0.983001708984375,-0.0818023681640625,0.0833587646484375
1638746347595448800,11.95744873046875,-0.9838104248046875,-0.0826568603515625,0.081390380859375
1638746347605470700,11.967470703125,-0.985748291015625,-0.081207275390625,0.0815887451171875
1638746347615492900,11.977492919921875,-0.9843902587890625,-0.0821990966796875,0.082183837890625
1638746347625513700,11.987513671875,-0.9832916259765625,-0.0821990966796875,0.083343505859375
1638746347635535600,11.99753564453125,-0.981597900390625,-0.0829620361328125,0.0843505859375
1638746347645557800,12.007557861328126,-0.9813995361328125,-0.0835113525390625,0.0850982666015625
1638746347655580000,12.017579833984374,-0.9838714599609375,-0.0840606689453125,0.0832672119140625
1638746347665601800,12.027601806640625,-0.98577880859375,-0.0841522216796875,0.084259033203125
1638746347675622700,12.03762255859375,-0.985565185546875,-0.0829925537109375,0.0842742919921875
1638746347685644500,12.04764453125,-0.983795166015625,-0.082794189453125,0.0838775634765625
1638746347695666700,12.057666748046875,-0.982086181640625,-0.0829010009765625,0.0831298828125
1638746347705688800,12.067688720703124,-0.9815521240234375,-0.0841217041015625,0.082305908203125
1638746347715710700,12.077710693359375,-0.9833526611328125,-0.0833587646484375,0.0827178955078125
1638746347725731600,12.087731689453125,-0.9849090576171875,-0.083648681640625,0.082061767578125
1638746347735753700,12.097753662109374,-0.9857177734375,-0.0818939208984375,0.0824737548828125
1638746347745775600,12.107775634765625,-0.9834442138671875,-0.08074951171875,0.0833282470703125
1638746347755797500,12.117797607421876,-0.981475830078125,-0.081695556640625,0.0843353271484375
1638746347765820000,12.12781982421875,-0.98126220703125,-0.0832061767578125,0.0831146240234375
1638746347775840800,12.1378408203125,-0.9830780029296875,-0.082489013671875,0.0835113525390625
1638746347785862700,12.147862548828124,-0.986083984375,-0.082550048828125,0.083587646484375
1638746347795884500,12.157884521484375,-0.9861602783203125,-0.0816192626953125,0.083770751953125
1638746347805906700,12.16790673828125,-0.9835357666015625,-0.08184814453125,0.0831451416015625
1638746347815928600,12.177928466796875,-0.9822998046875,-0.081695556640625,0.0824432373046875
1638746347825949700,12.18794970703125,-0.9812164306640625,-0.082122802734375,0.0838775634765625
1638746347835971600,12.1979716796875,-0.9842681884765625,-0.081939697265625,0.0833740234375
1638746347845993700,12.20799365234375,-0.984588623046875,-0.083038330078125,0.0826873779296875
1638746347856015600,12.218015625,-0.98553466796875,-0.0811920166015625,0.082855224609375
1638746347866037500,12.22803759765625,-0.98443603515625,-0.0808868408203125,0.0825958251953125
1638746347876059000,12.238058837890625,-0.9817962646484375,-0.0803985595703125,0.0838775634765625
1638746347886080800,12.248080810546876,-0.982025146484375,-0.0824432373046875,0.0839691162109375
1638746347896102700,12.2581025390625,-0.9830474853515625,-0.08221435546875,0.082733154296875
1638746347906124500,12.26812451171875,-0.9842376708984375,-0.08282470703125,0.0828857421875
1638746347916146700,12.278146728515624,-0.9853668212890625,-0.0817413330078125,0.0835418701171875
1638746347926167800,12.288167724609375,-0.9846954345703125,-0.0830841064453125,0.08441162109375
1638746347936189700,12.298189697265625,-0.9822998046875,-0.0830078125,0.08392333984375
1638746347946211800,12.3082119140625,-0.9808197021484375,-0.084442138671875,0.08349609375
1638746347956233700,12.318233642578125,-0.9827880859375,-0.0845489501953125,0.0838470458984375
1638746347966255600,12.328255615234376,-0.9852752685546875,-0.0839080810546875,0.083465576171875
1638746347976276700,12.33827685546875,-0.985931396484375,-0.0829010009765625,0.0832672119140625
1638746347986299000,12.348298828125,-0.9832763671875,-0.0830841064453125,0.082489013671875
1638746347996320800,12.35832080078125,-0.9819488525390625,-0.0817718505859375,0.0826416015625
1638746348006342700,12.3683427734375,-0.9812164306640625,-0.0840911865234375,0.0836334228515625
1638746348016364800,12.37836474609375,-0.9823760986328125,-0.083099365234375,0.0837249755859375
1638746348026385700,12.3883857421875,-0.9849090576171875,-0.0832672119140625,0.0833282470703125
1638746348036407800,12.39840771484375,-0.9857635498046875,-0.0828094482421875,0.0834503173828125
1638746348046429700,12.4084296875,-0.9835662841796875,-0.0825653076171875,0.0832672119140625
1638746348056451800,12.418451904296875,-0.9830474853515625,-0.0809326171875,0.0831146240234375
1638746348066473700,12.4284736328125,-0.9826812744140625,-0.08184814453125,0.0831298828125
1638746348076494600,12.43849462890625,-0.981109619140625,-0.0819549560546875,0.0828094482421875
1638746348086516700,12.448516845703125,-0.9845733642578125,-0.082611083984375,0.082672119140625
1638746348096539000,12.458538818359376,-0.985076904296875,-0.08197021484375,0.082916259765625
1638746348106560800,12.468560791015625,-0.985137939453125,-0.08111572265625,0.0824737548828125
1638746348116582700,12.478582763671875,-0.9829254150390625,-0.0800933837890625,0.083648681640625
1638746348126603500,12.488603515625,-0.98193359375,-0.0819854736328125,0.0836181640625
1638746348136625700,12.498625732421875,-0.9828338623046875,-0.0807342529296875,0.0826263427734375
1638746348146647800,12.508647705078126,-0.9845123291015625,-0.0824737548828125,0.08294677734375
1638746348156669700,12.518669677734374,-0.986053466796875,-0.081878662109375,0.0824432373046875
1638746348166691800,12.52869189453125,-0.98492431640625,-0.0827178955078125,0.082489013671875
1638746348176712700,12.538712646484376,-0.981414794921875,-0.0825653076171875,0.0819244384765625
1638746348186734600,12.548734619140625,-0.98101806640625,-0.0840301513671875,0.0822601318359375
1638746348196756500,12.558756591796875,-0.981353759765625,-0.0847625732421875,0.083465576171875
1638746348206779000,12.56877880859375,-0.9835052490234375,-0.0847015380859375,0.08514404296875
1638746348216800800,12.57880078125,-0.98541259765625,-0.08221435546875,0.085968017578125
1638746348226821600,12.588821533203125,-0.98614501953125,-0.080352783203125,0.0862274169921875
1638746348236843800,12.59884375,-0.984588623046875,-0.0792236328125,0.0878143310546875
1638746348246865700,12.60886572265625,-0.9821624755859375,-0.0810546875,0.0870513916015625
1638746348256887600,12.618887451171876,-0.9818115234375,-0.0818023681640625,0.084716796875
1638746348266909700,12.62890966796875,-0.98388671875,-0.0826873779296875,0.08099365234375
1638746348276930800,12.638930908203125,-0.985137939453125,-0.083648681640625,0.0797882080078125
1638746348286952700,12.64895263671875,-0.985137939453125,-0.0827789306640625,0.07867431640625
1638746348296974600,12.658974609375,-0.9835205078125,-0.0830841064453125,0.0782318115234375
1638746348306996700,12.668996826171876,-0.9824371337890625,-0.0825653076171875,0.08087158203125
1638746348317018600,12.6790185546875,-0.982391357421875,-0.0830535888671875,0.0828094482421875
1638746348327039700,12.689039794921875,-0.98382568359375,-0.082550048828125,0.085479736328125
1638746348337061600,12.6990615234375,-0.98455810546875,-0.0824737548828125,0.0865478515625
1638746348347083800,12.709083740234375,-0.9847259521484375,-0.0806427001953125,0.0867156982421875
1638746348357105700,12.719105712890626,-0.9835662841796875,-0.080657958984375,0.0858306884765625
1638746348367127600,12.72912744140625,-0.9824981689453125,-0.08209228515625,0.0860595703125
1638746348377148700,12.739148681640625,-0.981842041015625,-0.0839691162109375,0.0849151611328125
1638746348387170800,12.7491708984375,-0.9838409423828125,-0.085357666015625,0.0844879150390625
1638746348397192700,12.759192626953125,-0.98583984375,-0.0859375,0.083465576171875
1638746348407214600,12.769214599609375,-0.985687255859375,-0.084014892578125,0.083038330078125
1638746348417236700,12.77923681640625,-0.982269287109375,-0.083160400390625,0.08172607421875
1638746348427257900,12.7892578125,-0.9819183349609375,-0.08221435546875,0.0816497802734375
1638746348437279700,12.79927978515625,-0.982147216796875,-0.0838775634765625,0.082427978515625
1638746348447301600,12.809301513671874,-0.982879638671875,-0.0826873779296875,0.085479736328125
1638746348457323800,12.81932373046875,-0.984222412109375,-0.0837860107421875,0.0859527587890625
1638746348467345700,12.829345703125,-0.9851226806640625,-0.080902099609375,0.0856475830078125
1638746348477367600,12.839367431640625,-0.9840545654296875,-0.081756591796875,0.0853424072265625
1638746348487388700,12.849388671875,-0.98370361328125,-0.0806121826171875,0.0854949951171875
1638746348497410000,12.85941015625,-0.982421875,-0.0818328857421875,0.0847625732421875
1638746348507432000,12.869431884765625,-0.981231689453125,-0.08233642578125,0.0828094482421875
1638746348517453800,12.879453857421876,-0.9823455810546875,-0.08343505859375,0.07965087890625
1638746348527475000,12.889474853515624,-0.9842071533203125,-0.083160400390625,0.0788421630859375
1638746348537497000,12.8994970703125,-0.9838409423828125,-0.0823516845703125,0.0778045654296875
1638746348547519000,12.90951904296875,-0.98388671875,-0.082366943359375,0.0773773193359375
