time,seconds_elapsed,z,y,x
1639426275406918100,0.026918212890625,-0.08267243798971176,0.06901712986379861,0.04708849891126156
1639426275416879900,0.0368798828125,0.24214169993400572,0.038384091190993785,0.12784545866847039
1639426275426843000,0.0468427734375,0.4944213475227356,-0.056473582372069356,0.20803864706307648
1639426275436806000,0.056805908203125,0.44754736814498897,-0.19233575875759124,0.2057292010769248
1639426275446769000,0.066768798828125,0.3470627946108579,-0.21917963428050277,0.19311609548032282
1639426275456732200,0.076732177734375,0.36109599613845345,-0.1634282287031412,0.13195040976926684
1639426275466694000,0.08669384765625,0.3124421476066112,-0.14413023851513862,0.026824001778662204
1639426275476657000,0.096656982421875,0.14679215120077133,-0.15174889682531356,0.0004838379941880703
1639426275486620000,0.106619873046875,-0.10096271243989467,-0.1910042178928852,-0.040221535751223565
1639426275496583000,0.1165830078125,-0.2519020464479923,-0.162678871640563,-0.1766382772795856
1639426275506546000,0.1265458984375,-0.44740357576012607,-0.17281915738284587,-0.349748380433023
1639426275516508000,0.1365078125,-0.5580763658314943,-0.17565058141648768,-0.560048250426352
1639426275526471000,0.146470947265625,-0.5213479328930377,-0.15839724879860878,-0.6995557975769042
1639426275536434000,0.156433837890625,-0.47384442344009875,-0.17985563189089296,-0.7103349657446145
1639426275546397000,0.16639697265625,-0.3406295466929674,-0.16866086865961552,-0.6260550925582647
1639426275556359200,0.176359130859375,-0.21234861921668052,-0.1141062716513872,-0.4840503217644989
1639426275566322000,0.186322021484375,-0.11575403885841369,-0.04944587569236755,-0.3157540486335754
1639426275576285000,0.196284912109375,-0.05299216999709606,-0.012085574591159819,-0.16918445414230227
1639426275586248000,0.206248046875,-0.019488544324040413,-0.024288053560256956,-0.08364055236950516
1639426275596211000,0.2162109375,0.029988895550370216,-0.0017944822013378143,-0.002617196761071682
1639426275606173000,0.2261728515625,0.1757669012725353,0.06407821215689181,0.18498744182139634
1639426275616136000,0.236135986328125,0.2948281649827957,0.028745032969117162,0.3424054703243077
1639426275626099000,0.246098876953125,0.3045785746246576,0.022116554740071296,0.3636206923104822
1639426275636062000,0.25606201171875,0.26591303614377976,0.01411503459215164,0.3399392263412475
1639426275646025000,0.26602490234375,0.3232020265519619,-0.008877133938670158,0.24587226476445792
1639426275655987000,0.275987060546875,0.5523147335648536,0.015665186643600462,0.3377208196394145
1639426275665949700,0.28594970703125,0.6937818903505801,0.03339724268913269,0.5467126757740974
1639426275675913000,0.295912841796875,0.7101549330025911,0.02458849781155586,0.6745543350502848
1639426275685876000,0.3058759765625,0.5062099849939345,-0.008489011403918266,0.7381418410807847
1639426275695839000,0.3158388671875,0.07159341009259224,-0.01516249781847,0.5991302607536315
1639426275705801000,0.325801025390625,-0.1255085401535034,0.09748656076192855,0.4603264779582619
1639426275715764000,0.335763916015625,0.2876788777500391,0.4843710781514644,0.009497457794100045
1639426275725726700,0.345726806640625,0.3856301334142685,0.771595782393217,-0.4163394521936774
1639426275735690000,0.35568994140625,-0.10034136567115783,0.02684416778385639,-0.09910144861266017
1639426275745653000,0.365653076171875,-0.10219897623658179,-0.18293255511820317,-0.06733721395283937
1639426275755615000,0.375614990234375,-0.2563461663752794,-0.11894962002933025,-0.052178515526652335
1639426275765578000,0.385577880859375,-0.09827683435678482,0.17435937256217002,0.042676235426962375
1639426275775540700,0.395540771484375,0.04439736013114452,0.39964404571950435,0.3055184858232736
1639426275785503700,0.405503662109375,0.07744739681780338,0.44690731667578215,0.5154745108149945
1639426275795466000,0.415466064453125,-0.1820984423816204,0.3189712571144104,0.7426219091042876
1639426275805429000,0.425428955078125,-0.5702092866957187,-0.03689502167701721,0.7886930476665497
1639426275815392000,0.43539208984375,-0.7608394105792046,-0.008307809618115424,0.43809331110119815
1639426275825355000,0.44535498046875,-0.8808207117438316,-0.01996609870791435,-0.1971314686015248
1639426275835317800,0.45531787109375,-0.8879378502726555,0.04528349531590938,-1.0717731994494795
1639426275845280000,0.465280029296875,-0.8868389491200447,0.08946575139164924,-1.5842241246595978
1639426275855243000,0.475242919921875,-0.8044388983309269,-0.019686112722754476,-1.568345295265317
1639426275865206000,0.4852060546875,-0.5303220974653959,-0.21986381715238093,-1.0903428753629327
1639426275875169000,0.4951689453125,-0.2302221295595169,-0.3203174110263586,-0.4126765457719564
1639426275885131800,0.5051318359375,-0.08496902449429035,-0.4056353950887918,0.06160641521587967
1639426275895094000,0.515093994140625,-0.047931963998079294,-0.4395604610443115,0.2474478435181081
1639426275905057000,0.52505712890625,-0.03658113342225552,-0.4584884488761425,0.22259791829138992
1639426275915020000,0.53502001953125,-0.07372165429294109,-0.45578386609256266,0.07168722585588694
1639426275924983000,0.544983154296875,-0.13180793255865572,-0.42862990170717236,-0.10680910038053988
1639426275934945800,0.55494580078125,-0.14554127435684203,-0.39432022034823894,-0.24316110610961914
1639426275944907800,0.56490771484375,-0.03562017943561077,-0.4538339010685682,-0.4465587954990565
1639426275954871000,0.57487109375,0.1368202077627182,-0.5528910721480846,-0.7626670643977821
1639426275964834000,0.584833984375,-0.021865210327506063,-0.31682430821359153,-0.6955562065467238
1639426275974797000,0.594797119140625,-0.09287819018363952,-0.19778525633513927,-0.6827392489410936
1639426275984760000,0.604760009765625,-0.037380174845457075,-0.2440945875674486,-0.676816142502427
1639426275994721800,0.6147216796875,-0.01570493413209915,-0.3244733616620302,-0.49886049901396035
1639426276004684800,0.624684814453125,0.14963585019409656,-0.2853039653122425,-0.268686738640815
1639426276014648000,0.63464794921875,0.28328561122715473,-0.19655717584490776,-0.14652385565340517
1639426276024611000,0.644611083984375,0.10539397288560867,-0.1117407115638256,-0.024400866284966467
1639426276034574000,0.654573974609375,-0.154334821665287,0.029297406154870986,0.044914369742572305
1639426276044535800,0.664535888671875,-0.3699357206761837,0.22011925321817397,0.05663125715181231
1639426276054498800,0.674498779296875,-0.616705080410838,0.3888654620736837,-0.031802520843595264
1639426276064461800,0.6844619140625,-0.8241191658347845,0.5402823504656553,-0.017209785737097263
1639426276074425000,0.694425048828125,-0.8772317473411559,0.6468605646997689,0.2377447801493108
1639426276084386800,0.70438671875,-0.8490648065209389,0.6310036548763513,0.399591584879905
1639426276094349800,0.714349853515625,-0.8335966037541628,0.5330664277374744,0.2852122684407979
1639426276104312800,0.724312744140625,-0.8386451193153858,0.4513683877378702,0.2104433701172471
1639426276114275800,0.73427587890625,-0.7560346406459808,0.37387773630023,0.25364056067839263
1639426276124238800,0.74423876953125,-0.5794371337682008,0.29654139864146706,0.32784123065993187
1639426276134201000,0.754201171875,-0.3023345950901508,0.22270050188302992,0.3821994283132255
1639426276144163800,0.764163818359375,0.04470598768889904,0.12495441340208052,0.3668851009339094
1639426276154126800,0.774126953125,0.2869868038326502,0.006062661039829254,0.22913901049792765
1639426276164089900,0.78408984375,0.41447161249518394,-0.050804304563999175,0.17713877414762974
1639426276174052900,0.794052978515625,0.5305716883122921,-0.11182546723783016,0.2623041979968548
1639426276184015000,0.80401513671875,0.5027075298309326,-0.1621159770607948,0.38455300570204853
1639426276193977900,0.813977783203125,0.3884901990205049,-0.11272563094794749,0.5096311916142702
1639426276203940900,0.82394091796875,0.2329103457301855,-0.00866787510216236,0.5121570568300783
1639426276213904000,0.83390380859375,0.06731704794764519,0.027369068440794942,0.3553095216915011
1639426276223867000,0.843866943359375,-0.07593290060162544,0.013092705807089804,0.2330298804566264
1639426276233829000,0.8538291015625,-0.1644260075688362,0.04031681281924247,0.1370262517288327
1639426276243792000,0.8637919921875,-0.20952011779248714,0.07384557293355465,0.051085897984355685
1639426276253755000,0.8737548828125,-0.3577870177209377,0.11353051759004593,0.06972440135031938
1639426276263718000,0.8837177734375,-0.5257131423652172,0.22094342908263206,0.1607299295298755
1639426276273681000,0.893680908203125,-0.6038590428411961,0.37959494490325446,0.15981398372873662
1639426276283643000,0.903642822265625,-0.6134627374887466,0.4651496603310108,0.14430325699448585
1639426276293606100,0.913606201171875,-0.5813526120007038,0.44637014105916023,0.15662470443444326
1639426276303569000,0.92356884765625,-0.5023889654010534,0.361425081962347,0.13556231665611265
1639426276313532000,0.933531982421875,-0.38831075080037114,0.2874959223985672,0.04482873728573322
1639426276323495000,0.943494873046875,-0.27305472459197044,0.1916664811939001,-0.14960940057858824
1639426276333457000,0.953456787109375,-0.19297639474868775,0.08573942434489727,-0.26586919700205325
1639426276343420000,0.963419921875,-0.079441785505414,0.035490415576100345,-0.21402225151732562
1639426276353383400,0.973383544921875,0.12144435945451258,0.016219897916913032,-0.08535259871808812
1639426276363346700,0.9833466796875,0.3964999024748802,0.1172346328049898,0.1272366791203618
1639426276373308700,0.99330859375,0.6577554682016372,0.05578209297657013,0.21527546644881365
1639426276383271700,1.003271728515625,0.8878396505951881,0.0010772738426923752,0.3083373426362872
1639426276393234700,1.013234619140625,0.9936392816722392,0.09618424599170684,0.39094782130569217
1639426276403197400,1.023197509765625,0.9048375471472739,0.1487964767605066,0.4382528855770826
1639426276413160400,1.033160400390625,0.7673147440731525,0.19326631760597227,0.5148942267090082
1639426276423122700,1.043122802734375,0.655273588258028,0.3022399025440216,0.49119303312599655
1639426276433085700,1.053085693359375,0.22022329811453817,0.30100013161599637,0.37664851618781686
1639426276443048700,1.063048583984375,-0.4812888942271471,0.11308920356333255,0.28747782048629594
1639426276453011700,1.07301171875,0.2065764655560255,0.3446510572940111,0.22833384986119343
1639426276462974500,1.082974365234375,0.5355506457686424,0.37770109398067,0.20373335108458995
1639426276472936700,1.092936767578125,0.13698328936994075,0.06798223385810852,0.3133585317991674
1639426276482899700,1.102899658203125,0.1785346124202013,0.035491000097990034,0.4295680593401193
1639426276492862700,1.11286279296875,0.35989831078648565,0.06429506977796554,0.5197758612707257
1639426276502825700,1.12282568359375,0.29320903934836384,-0.013293196815252303,0.5868656763337552
1639426276512788500,1.13278857421875,0.26556407657563685,-0.03336743207275867,0.6739834032945334
1639426276522750700,1.142750732421875,0.3637269291639328,0.02997428250312805,0.7079751047454774
1639426276532713700,1.152713623046875,0.4404834211081266,-0.004013327294588089,0.5956342353314161
1639426276542676700,1.1626767578125,0.42369887504577636,-0.018692425510287283,0.28161913931965826
1639426276552639700,1.1726396484375,0.25549510250389573,0.008940846824645996,-0.03651066200193018
1639426276562602800,1.182602783203125,0.10778759002387522,0.010355974319577216,-0.3648865840604529
1639426276572564500,1.192564453125,-0.24239304434657094,0.044208559560775754,-0.4552418681703508
1639426276582527700,1.20252783203125,-0.6384194840908051,0.30972178273200984,-0.34097602204307914
1639426276592490800,1.21249072265625,-0.9987544327288865,0.886907338181138,0.009834434663504362
1639426276602453800,1.222453857421875,-0.759991853839159,1.6959183667331934,0.7792892595052718
1639426276612416800,1.232416748046875,-1.495824248933792,0.41835225332081316,0.8989701164186
1639426276622378500,1.24237841796875,-1.0991530815452337,0.3744873926311731,0.32168197737783194
1639426276632341500,1.252341552734375,-0.06137947459220886,0.48323827472925185,-0.050513358793407674
1639426276642304800,1.2623046875,0.129203887540102,0.07904898679554462,0.06402925844863057
1639426276652267800,1.272267822265625,0.2593710671544075,-0.16706337033510207,0.2165590765185654
1639426276662230800,1.282230712890625,0.5241372713506222,-0.11652268514335155,0.4262463675715029
1639426276672192500,1.292192626953125,0.5639338596880435,-0.26024375833570956,0.5820547689206897
1639426276682155500,1.302155517578125,0.4811749124586582,-0.46464989411532875,0.4975955936446786
1639426276692118500,1.312118408203125,0.5201823962450027,-0.5740577788174152,0.20896891365051268
1639426276702081800,1.322081787109375,0.6755541597425937,-0.5314531473219395,-0.09884601254686713
1639426276712043800,1.332043701171875,0.8518629128068685,-0.5777858594298363,-0.3851489988338202
1639426276722006500,1.342006591796875,1.0476005889624356,-0.6570072801828384,-0.5738831529028713
1639426276731969500,1.351969482421875,1.254102820238471,-0.685012892961502,-0.6715416361656039
1639426276741932500,1.3619326171875,1.360561207485199,-0.6293138020932674,-0.6535486641615629
1639426276751895600,1.3718955078125,1.291063308367133,-0.5408855770558119,-0.5151618646692484
1639426276761857800,1.38185791015625,1.2073925069898366,-0.33782734875380993,-0.37132768649123604
1639426276771820500,1.391820556640625,1.0974556299775837,-0.133782447502017,-0.3077819737758487
1639426276781783600,1.401783447265625,0.8978151011645793,-0.12051087799668311,-0.2994767214410007
1639426276791746600,1.41174658203125,0.6584370207250118,-0.062357964235544204,-0.24849106896072626
1639426276801709600,1.42170947265625,0.3947457522839308,0.01171907936632633,-0.10387107416726649
1639426276811671800,1.431671875,0.2032861918389797,-0.08304594747722148,-0.051799745342135425
1639426276821634600,1.441634521484375,0.09347907868623732,-0.0052589434415102,0.031940760270506144
1639426276831597600,1.45159765625,-0.07221066520810127,0.06756137809753418,0.13489318522289395
1639426276841560600,1.461560546875,-0.20401216802597044,0.07341010412573815,0.19777312750592826
1639426276851523600,1.471523681640625,-0.23786767587661742,0.09775485630929469,0.20595658009201287
1639426276861485800,1.48148583984375,-0.21004092679619787,0.14911854832172394,0.16240516926571727
1639426276871448800,1.49144873046875,-0.27637714701294896,0.10852759473621845,0.11489654524624347
1639426276881411600,1.50141162109375,-0.41498423819243907,0.07159399461448192,0.08609864957872777
1639426276891374600,1.51137451171875,-0.5901899984508753,0.11915128008127211,0.10980101220551877
1639426276901337600,1.521337646484375,-0.746278385785222,0.17983108197152614,0.11094316797796636
1639426276911299600,1.531299560546875,-0.8130033130586147,0.22058511716425416,0.06644333385303616
1639426276921262800,1.541262939453125,-0.8289730356067418,0.2041664818048477,0.027100188371539113
1639426276931225600,1.5512255859375,-0.7868985654652119,0.17309972788989542,0.035652328139543533
1639426276941188600,1.561188720703125,-0.6898024653255939,0.1279974343597889,0.0745459762878716
1639426276951151600,1.571151611328125,-0.5409107114970684,0.04648761040866375,0.09003671968001872
1639426276961113600,1.581113525390625,-0.40252924576699733,-0.020772154393792153,0.08708956031221896
1639426276971076600,1.59107666015625,-0.3546370292574167,-0.11072656608521937,0.07170271568596363
1639426276981039900,1.601039794921875,-0.3751023096591234,-0.24777356834113595,-0.03182995683979243
1639426276991002600,1.611002685546875,-0.44426293964684005,-0.3274626066058874,-0.16419775177091359
1639426277000965600,1.620965576171875,-0.524523640319705,-0.3776566703170538,-0.2582325646437704
1639426277010927600,1.630927734375,-0.5504138683795928,-0.3269692701309919,-0.24102307116761804
1639426277020890600,1.640890625,-0.5451870736420155,-0.2547013217777014,-0.17775062243565917
1639426277030853600,1.650853515625,-0.5937561664998531,-0.16440262669324873,-0.07150017885118723
1639426277040816600,1.660816650390625,-0.6948410440146923,-0.11939327214360236,-0.07513279973249883
1639426277050779600,1.670779541015625,-0.7105331186652183,-0.06436287431716918,-0.09261997763887048
1639426277060741600,1.68074169921875,-0.6807254249006509,-0.012295417949557304,-0.08204509987160563
1639426277070704600,1.69070458984375,-0.575979102268815,0.004525368469953537,-0.06080430505275726
1639426277080667600,1.700667724609375,-0.41386780138313767,0.023210195195674896,-0.03207370246779173
1639426277090630700,1.710630615234375,-0.2492354575872421,0.005398059651255607,-0.01973608934432268
1639426277100592600,1.720592529296875,-0.0985433763384819,-0.004686696511507034,-0.06757336079627276
1639426277110555600,1.7305556640625,-0.03728197516798973,-0.029870822128653524,-0.10072978046685456
1639426277120518700,1.7405185546875,-0.05977203939557075,-0.016274842974543572,-0.014574870656244457
1639426277130481700,1.750481689453125,-0.05268588052690029,0.042160979381203646,0.08478347532693296
1639426277140444700,1.760444580078125,-0.0030260698229074476,0.11002689338326453,0.15007120940405874
1639426277150407700,1.77040771484375,0.0479494996547699,0.14030746535658836,0.23365619566142556
1639426277160369700,1.78036962890625,0.01852700581550598,0.17933657645285128,0.31889749775845555
1639426277170332700,1.790332763671875,-0.06815875946879386,0.29714345618784427,0.5103359788827598
1639426277180295700,1.800295654296875,-0.16592764430344104,0.36996027059555053,0.6781717948950827
1639426277190258700,1.8102587890625,-0.19194354456961155,0.32791794915795325,0.5924252101570368
1639426277200221400,1.820221435546875,-0.26058804172873495,0.340068990200758,0.4276848759420216
1639426277210183700,1.83018359375,-0.39200609818696974,0.3416132970333099,0.39666185157094147
1639426277220146700,1.840146728515625,-0.4468395121365785,0.36862171546816824,0.448632131174393
1639426277230109700,1.850109619140625,-0.42281800055801866,0.3513976089447737,0.421356293975003
1639426277240072700,1.86007275390625,-0.4076876514434814,0.31224457920789717,0.3510914656050503
1639426277250034700,1.87003466796875,-0.43295770177841186,0.247775321906805,0.2735397316299379
1639426277259997700,1.879997802734375,-0.4284288261771202,0.17868191193640232,0.18315861895903943
1639426277269960700,1.889960693359375,-0.3427589599370956,0.08930793048143386,0.026387363927066323
1639426277279923700,1.899923828125,-0.22608488362431525,-0.06821312000453472,-0.13421747791841626
1639426277289886700,1.90988671875,-0.10969780755937099,-0.2110375366181135,-0.2743404900861904
1639426277299848400,1.919848388671875,-0.029061843833327293,-0.3610299451649189,-0.386047920434922
1639426277309811700,1.929811767578125,0.05776011505126953,-0.47363925625681874,-0.4597288043260574
1639426277319774700,1.939774658203125,0.16677344747781753,-0.5496078126937151,-0.5521605659164488
1639426277329737700,1.94973779296875,0.43243513920903204,-0.5611269855737686,-0.5609245948694646
1639426277339700700,1.95970068359375,0.8965256458759308,-0.5603840582519769,-0.5918753211893141
1639426277349663700,1.969663818359375,0.9849135389029979,-0.673867814090848,-0.752341631346941
1639426277359625200,1.979625244140625,0.7348287710100412,-0.7403162625104188,-0.710062724674493
1639426277369588200,1.989588134765625,0.6182014564484357,-0.6268629018098115,-0.5284228397153318
1639426277379551000,1.999551025390625,0.6408961033374071,-0.3107493722140789,-0.22368279091864823
1639426277389514000,2.009513916015625,0.5608785637706518,-0.2534492758899927,-0.06355550345703959
1639426277399477000,2.01947705078125,0.41207039657235145,-0.15181027162373065,-0.0036859950363636014
1639426277409439000,2.02943896484375,0.23980185880959032,0.016895605221390723,0.09201485135257244
1639426277419402200,2.03940234375,0.08438099547326565,0.08580839792788028,0.18424612193480133
1639426277429365000,2.049364990234375,-0.008854337584972382,0.06762684454917907,0.17104264922961593
1639426277439328000,2.059327880859375,-0.08797054439783096,0.0891015942543745,0.14006371972858905
1639426277449291000,2.069291015625,-0.14856442157030106,0.19567805492281912,0.21561112814396619
1639426277459253000,2.0792529296875,-0.2162450421333313,0.20755846233069897,0.2690985343120992
1639426277469216000,2.089216064453125,-0.2333013908743858,0.1704956828713417,0.22815189915671943
1639426277479179000,2.099178955078125,-0.1855482905745506,0.1308855570167303,0.20000892373397947
1639426277489142000,2.10914208984375,-0.11123743821680546,0.07249123571515083,0.1451886615268886
1639426277499105000,2.11910498046875,-0.045559974169731135,-0.001370119309425354,0.10452478883564471
1639426277509067000,2.12906689453125,0.03615267887711525,-0.06952186451554299,0.07965469760373234
1639426277519030000,2.139030029296875,0.1385492235124111,-0.14139701415896413,0.06387859793156385
1639426277528993000,2.148992919921875,0.13253800039887428,-0.15609715516269207,0.011153408307582139
1639426277538956000,2.1589560546875,-0.02277589543163776,-0.13079144899249076,0.0001914309188723564
1639426277548919000,2.1689189453125,-0.2166892787694931,-0.052960021293163295,0.07249094345420598
1639426277558881000,2.178881103515625,-0.39066637401580806,0.02539981419444084,0.18614947133809326
1639426277568844000,2.188843994140625,-0.5882715976089239,0.09075696024596691,0.2860352752614766
1639426277578807000,2.19880712890625,-0.7233399932682514,0.13862462683618068,0.28430545579418537
1639426277588769800,2.208769775390625,-0.7763011836051941,0.1558686071038246,0.2641075941570103
1639426277598733000,2.218733154296875,-0.7004881099909543,0.12755904294252396,0.19625877742022274
1639426277608695000,2.228695068359375,-0.6254506969243288,0.09921616103351115,0.16287914345301688
1639426277618658000,2.238657958984375,-0.546553101298213,0.0996235727906227,0.16408464678525925
1639426277628621000,2.24862109375,-0.44886546500623226,0.07910159376561642,0.16013795498609543
1639426277638584000,2.258583984375,-0.31544717464148997,0.0421370139837265,0.18233919233493506
1639426277648546800,2.268546875,-0.18786884247660635,0.024251228681206702,0.15199585732370613
1639426277658509000,2.278509033203125,-0.11790274132490157,0.0036819033831357955,0.06802431943416595
1639426277668472000,2.28847216796875,-0.10058920295238494,-0.026738953843712804,0.10762523906901478
1639426277678435000,2.29843505859375,-0.09992460156381129,-0.06245733295679092,0.1907214554287493
1639426277688398000,2.308398193359375,-0.10645254202783107,-0.0689461104542017,0.22766338498741387
1639426277698360800,2.31836083984375,-0.15573124445974826,-0.07609305959939956,0.287925253726542
1639426277708323000,2.328322998046875,-0.2133914062678814,-0.006382979035377502,0.3620399989902973
1639426277718286000,2.3382861328125,-0.28743337855637074,0.09903262116014958,0.4330490333236754
1639426277728249000,2.3482490234375,-0.4190390665411949,0.19987258400321006,0.5062681449219584
1639426277738212000,2.358212158203125,-0.5482300945997238,0.25901392427980896,0.507587410826981
1639426277748174800,2.3681748046875,-0.7151654546409845,0.2602846748679876,0.43005628124848005
1639426277758137000,2.37813720703125,-0.8603507551670074,0.24406243886351583,0.16883914783596993
1639426277768100000,2.38810009765625,-0.8715671457082033,0.2661041748017072,-0.14275135137736797
1639426277778063000,2.39806298828125,-0.804179370611906,0.27183716549575326,-0.36110271814018485
1639426277788026000,2.408026123046875,-0.7233002457797527,0.250455354771018,-0.4577792776934802
1639426277797989000,2.417989013671875,-0.5593208129346371,0.17903671672344207,-0.48323710568547246
1639426277807950800,2.427950927734375,-0.3526601762264967,0.1189431902885437,-0.4479449891604483
1639426277817914000,2.4379140625,-0.1779594428807497,0.10136895515322684,-0.29178894341737033
1639426277827877000,2.447877197265625,-0.0033136545926332472,0.07887655283808707,-0.05503785048052668
1639426277837840100,2.457840087890625,0.1259749886214733,0.04350245711803436,0.09355287457481026
1639426277847803100,2.46780322265625,0.02759352484643459,0.092931381675601,0.3295081409588456
1639426277857764900,2.477764892578125,-0.053987610775232314,0.8179396004170179,1.086306167192757
1639426277867728000,2.487727783203125,0.15534370644688605,0.0880821880787611,0.9402382386133075
1639426277877691100,2.497691162109375,1.5185241565197705,-0.772502375844121,0.2643836346194148
1639426277887654100,2.507654052734375,3.0030595341980457,-1.211159166046977,-0.4476277399048209
1639426277897617200,2.5176171875,3.3548762453377243,-1.1550421420276165,-0.8456804247796536
1639426277907579000,2.527578857421875,2.6125889750152824,-0.8969044160604477,-0.4856836220547557
1639426277917542000,2.5375419921875,1.3677192625463008,-0.37123102118372914,0.23331308131217957
1639426277927505000,2.5475048828125,0.42361470389366146,0.22384441122114657,0.7261354692056775
1639426277937468200,2.55746826171875,-0.30544892771840093,0.6115659639567136,0.7570008553296327
1639426277947431200,2.56743115234375,-1.0300438894838093,0.8185971875429153,0.47315790248066186
1639426277957393000,2.577392822265625,-1.5736942550778388,0.7206745734512805,0.059062722082436084
1639426277967356000,2.58735595703125,-1.619255982813239,0.41840778290033337,0.002550561265647411
1639426277977319000,2.59731884765625,-1.0979764389812945,0.36053076347112656,-0.10626052658706903
1639426277987282000,2.607281982421875,-0.5425859512329101,0.2272106727838516,-0.2712269246429205
1639426277997245200,2.6172451171875,-0.10032324549257755,-0.19813538494706154,-0.42646337132304907
1639426278007207000,2.62720703125,0.1862906333744526,-0.4951537534505129,-0.692510262979567
1639426278017170000,2.637169921875,0.35068098510801793,-0.6709481272518635,-0.8358145720645784
1639426278027133000,2.6471328125,0.4402449361771345,-0.7666781997352838,-0.804231685321033
1639426278037096000,2.657095947265625,0.3970750720143318,-0.6963812591940164,-0.6135688282117248
1639426278047059000,2.667058837890625,0.30463819585740565,-0.5420189649999141,-0.35238574319928884
1639426278057022200,2.677022216796875,0.24312895740568635,-0.3911836758881807,-0.16522241864353418
1639426278066984000,2.68698388671875,0.24549217940568924,-0.2867383820295334,-0.0708498982489109
1639426278076947000,2.696947021484375,0.2634481073349714,-0.2550438516050577,-0.0036620296388864514
1639426278086910000,2.706909912109375,0.30461072332859035,-0.2849018142521381,-0.022241350163519382
1639426278096873000,2.716873046875,0.3583230242937803,-0.27490006019771096,-0.1539075361639261
1639426278106836000,2.7268359375,0.36158348739445206,-0.1899842271953821,-0.18267215061634778
1639426278116798000,2.7367978515625,0.4081108452916145,-0.002905658313632011,-0.026660043388605115
1639426278126761000,2.746760986328125,0.5009995568692683,0.11253332324624062,0.1939016929000616
1639426278136724000,2.756723876953125,0.49951545579135415,0.20681728857457637,0.3638751054629683
1639426278146687000,2.76668701171875,0.479692564946413,0.291422155931592,0.43760114367008207
1639426278156650000,2.77664990234375,0.44160161148309707,0.3335661841779947,0.3983779713064432
1639426278166612000,2.786612060546875,0.36936639635562896,0.40240941877961156,0.349000484675169
1639426278176575000,2.796574951171875,0.35882337503135203,0.41376434100866316,0.4546116074427962
1639426278186538000,2.8065380859375,0.33057577019035816,0.19765023177862165,0.626106822745502
1639426278196501000,2.8165009765625,0.4534638987123966,0.07899871791303158,0.646425972674787
1639426278206464000,2.826464111328125,0.6362023925632238,0.0050683893054723735,0.548940288695693
1639426278216426200,2.83642626953125,0.7091489708304405,0.1670885047763586,0.4452893600851297
1639426278226389000,2.846388916015625,0.7226186932563782,0.33263153367638587,0.3630751872569322
1639426278236352000,2.85635205078125,0.6003127485364675,0.27487375671267505,0.3966591846898198
1639426278246315000,2.86631494140625,0.42588732500076293,0.1798673223286867,0.5997720657885074
1639426278256278000,2.876278076171875,0.24882979939579963,0.12643559187054634,0.9744465054243803
1639426278266240000,2.886239990234375,0.039247137761116026,-0.030178865164518353,1.2610735360339282
1639426278276203000,2.896203125,-0.3516670735359192,-0.16217442924976347,1.3380927705675363
1639426278286166000,2.906166015625,-0.8543500534474849,-0.11598843213617802,1.3124673309236765
1639426278296129000,2.91612890625,-1.1289923394918442,-0.10009762004315853,1.2916758873075247
1639426278306092000,2.926092041015625,-0.9988251598775386,-0.12060790863037109,0.6266553965389728
1639426278316055000,2.936054931640625,-0.6725906337618828,-0.3363163596689701,-0.9105228993073106
1639426278326017000,2.94601708984375,-0.470975590005517,-0.6399515159636735,-2.2851120476230977
1639426278335980000,2.95597998046875,-0.3866559693306684,-0.7652198176205158,-2.694937587878108
1639426278345943000,2.965943115234375,-0.37799160135984416,-0.5688619637399912,-2.2430589125305413
1639426278355906000,2.975906005859375,-0.6662935794442891,-0.12195698515176773,-1.2316209393173456
1639426278365868800,2.985868896484375,-1.0536544821739195,0.34594168162643907,-0.008260755605995655
1639426278375830800,2.995830810546875,-1.4172995782732962,0.6814063929021358,1.0793813363656402
1639426278385794000,3.0057939453125,-1.970235074084997,0.9430693703860044,2.279898989149928
1639426278395757000,3.015757080078125,-2.4971055697917937,1.4629694425582884,3.7963586143553254
1639426278405720000,3.025719970703125,-2.7402953174740072,2.2388322347462175,5.412828181320428
1639426278415682800,3.035682861328125,-2.873668599653244,3.050304684975743,6.356725819224119
1639426278425644800,3.045644775390625,-2.838003412032127,3.9535178457915783,6.088159053701162
1639426278435607800,3.05560791015625,-2.393173778413236,4.800334581124782,5.698964505803585
1639426278445571000,3.065571044921875,-1.3208856151789425,5.976744505351782,5.676531724721193
1639426278455534000,3.0755341796875,-0.40058454144001004,7.301549924322963,3.445922543919086
1639426278465496800,3.085496826171875,-0.6975991105511784,6.9495905898422,0.9344014952838421
1639426278475458800,3.095458740234375,-0.5068066357128321,5.848087730300426,0.8883826714307069
1639426278485421800,3.105421875,0.33591647363118826,5.277384522607922,1.5918600263655185
1639426278495384800,3.115384765625,-0.17699443377349525,4.472892432785034,-0.022328736186027525
1639426278505347800,3.125347900390625,-1.3562521121144293,3.2609435776650906,-1.6246867756903172
1639426278515311000,3.13531103515625,-1.3032371457636356,3.1917969762027263,-0.5730272667258978
1639426278525272800,3.14527294921875,-0.7185223638534546,3.6098061151742935,0.9758347449123859
1639426278535235800,3.15523583984375,-0.37755262542068957,3.3393165648952126,0.9350988298982381
1639426278545198800,3.16519873046875,0.09530892446190119,2.530908178411424,-0.327892230194807
1639426278555161900,3.175161865234375,0.5642196908921003,1.570566186185181,-1.403819918975234
1639426278565124900,3.185124755859375,1.245318625280261,0.7026920497760176,-1.5265210004925727
1639426278575086800,3.1950869140625,2.0387609133005142,-0.22922376617193221,-1.6370716254889963
1639426278585049900,3.2050498046875,4.173703149983287,-1.988464704389125,-2.1764555658102034
1639426278595012900,3.215012939453125,8.313621519264577,-4.647358772853017,-2.644256032910943
1639426278604975900,3.224975830078125,12.947828549599647,-6.958238591200113,-2.9523762256652115
1639426278614939000,3.23493896484375,14.861809237021207,-8.582491067126393,-3.357503086709976
1639426278624902000,3.24490185546875,11.276846471202372,-6.945498352092504,-3.213177617883682
1639426278634863900,3.25486376953125,5.975304827937483,-3.877296775898337,-0.8725362830013036
1639426278644827000,3.264826904296875,4.516961291614175,-2.3345760434940455,0.17753975616395473
1639426278654790000,3.274789794921875,3.7687954846471547,-1.7012695185028015,-0.14363105682134628
1639426278664753000,3.2847529296875,1.0193260961145163,-0.8035982097230852,0.2671779415130615
1639426278674716000,3.2947158203125,-0.259299170961976,0.29741350530087945,0.9681751700699329
1639426278684678000,3.304677978515625,0.32061902432143685,0.7356466632641852,1.3354571613669395
1639426278694641000,3.314640869140625,0.6925503027290105,0.5900941368609667,1.7808026355534792
1639426278704604000,3.32460400390625,0.9611708442658186,0.09430193937644361,1.979752259492874
1639426278714567000,3.33456689453125,0.7333125212281942,-0.9064420597344637,-0.01623041931092739
1639426278724530000,3.344530029296875,-1.3572276791483162,-1.2602438072115183,-3.1277830614537
1639426278734492000,3.354491943359375,-4.508058438712358,-0.39955505226179955,-3.792122584220767
1639426278744455000,3.364454833984375,-6.342775619804859,1.7814283662363886,-1.7421657386451959
1639426278754418000,3.37441796875,-2.186499405440688,2.4950880924895404,-0.5076029006570577
1639426278764381000,3.384380859375,1.7918465921372173,2.7744179518282412,-1.00305592931509
1639426278774344000,3.394343994140625,1.9235680154561996,1.250147799002379,-1.4631576586067676
1639426278784306000,3.404305908203125,0.5865437509030104,2.195872360072285,-0.9892249723613261
1639426278794269000,3.41426904296875,-1.5740303551644086,3.635686114101112,0.2779635394215584
1639426278804232000,3.42423193359375,-1.6941268071413038,2.3841794478356837,0.7951935156017541
1639426278814195000,3.43419482421875,-0.7999526928275823,2.268941541805863,1.2683996411383152
1639426278824158000,3.444157958984375,0.13773323095440865,1.839542993813753,0.5077227276444435
1639426278834119700,3.45411962890625,0.3790560157209635,0.7297985217578709,0.8743038771957159
1639426278844083000,3.4640830078125,-0.40168344259262084,0.38471667183116076,1.2317489496111869
1639426278854046000,3.4740458984375,0.14606325240433216,0.43031478605419393,-0.2742015565395355
1639426278864009000,3.484009033203125,-0.6778840639948844,0.18587679187655448,-2.4155887315779925
1639426278873972000,3.493971923828125,-2.486505849844217,0.7956491504147648,0.3553033842116594
1639426278883933700,3.50393359375,-2.245983860066533,0.9660216452978551,1.1160749902516602
1639426278893896700,3.513896728515625,1.3352344585269689,1.0617416347786783,1.8007851008743048
1639426278903860000,3.52385986328125,-0.8035960177659988,0.18540216010212898,-3.462967202222347
1639426278913823000,3.533822998046875,-3.210908503907919,0.580751723498106,2.8701877718001603
1639426278923786000,3.543785888671875,-0.1643658018141985,-0.5322977814525366,-0.09513386015594005
1639426278933748000,3.553748046875,0.24816110635399816,2.786046430301666,0.40551732166707516
1639426278943710700,3.563710693359375,-1.742178598126769,2.5164833472177386,0.8256693178862333
1639426278953673700,3.573673828125,-1.2898895884126425,2.2106673397526144,0.18584815030395985
1639426278963637000,3.583636962890625,0.32726796081662174,1.3851403529465198,-0.3237251736432314
1639426278973600000,3.59360009765625,1.687056430363655,0.2936982841700315,-0.5922872629910707
1639426278983562000,3.60356201171875,1.6531670202434061,-0.4760042318224907,-0.37175358375310896
1639426278993524700,3.613524658203125,1.6905448570013046,-1.1649512493625283,-0.30340017849504947
1639426279003487700,3.62348779296875,1.1994120296299458,-2.4740017575800417,0.4394558316260576
1639426279013450800,3.63345068359375,0.6836456962615252,-2.8273057846680283,-0.2436328152745962
1639426279023414000,3.6434140625,-0.3555769404560327,-2.492561788882315,0.45365737545788287
1639426279033377000,3.653376953125,-0.8333727318704128,-2.1989441687330604,0.6587409721076488
1639426279043339000,3.663339111328125,-0.9206810129672288,-2.2300819420576095,0.33064123664200307
1639426279053301800,3.6733017578125,-1.68423085154891,-1.6100637915760279,0.24282968219816684
1639426279063264800,3.6832646484375,-1.4678542919903992,-0.9928507616430521,0.2240782199770212
1639426279073227800,3.693227783203125,0.3841653215587139,-0.3222819890975952,0.3058072396367788
1639426279083191000,3.70319091796875,1.3377590085685251,-0.7125579024910926,-0.24454993011951445
1639426279093153000,3.713153076171875,1.3798212037503719,-0.7496241890817881,-1.3461094882845879
1639426279103115800,3.72311572265625,1.7894880463123322,-0.7965192112475633,-1.4645155029565096
1639426279113078800,3.733078857421875,1.4523779059171675,0.4353729462265968,0.08564414727687836
1639426279123041800,3.743041748046875,0.45355742221474643,-1.6041601204901932,-0.5432926381975413
1639426279133004800,3.7530048828125,-0.35974984222650525,-1.2893407223582267,-0.919804230132699
1639426279142967000,3.762967041015625,-1.381547881412506,-0.2002501851439476,-0.49849195796251294
1639426279152929800,3.7729296875,-1.7162147203087805,-1.2388695952713489,-0.9546306288421154
1639426279162892800,3.782892822265625,-1.5584651217639445,-1.6297662709116936,-1.0722960542798041
1639426279172855800,3.792855712890625,-0.9515706567496061,-2.536089088180661,-1.3520482306838035
1639426279182818800,3.80281884765625,0.5256880079239606,-3.2384687110066412,-1.1419383303046227
1639426279192781000,3.812781005859375,0.5578770438671111,-3.8718747508496043,-0.12555822451412676
1639426279202744000,3.822744140625,1.1424433572173118,-3.639762277498841,-0.364120020134747
1639426279212706800,3.832706787109375,1.134966153204441,-3.0309581794708964,0.36791444398164747
1639426279222669800,3.842669921875,0.7775935615032911,-2.4751000742107627,1.217598843705654
1639426279232632800,3.8526328125,0.07826689650714397,-1.019331941333413,1.240307226859033
1639426279242595000,3.862594970703125,-0.6863222219944,0.08836158954203129,2.049690595854819
1639426279252558000,3.87255810546875,-2.069769215026498,1.1666045695275067,2.8208266517817973
1639426279262520800,3.882520751953125,-2.170048036855459,1.7821762619942425,3.676671035440266
1639426279272483800,3.89248388671875,-1.7962164777845144,2.2329671421051023,3.536286413194239
1639426279282446800,3.90244677734375,-1.0196686259418726,2.5698732843607663,2.69929753665328
1639426279292408800,3.912408935546875,0.4314250853836536,2.8854005385011434,1.2832272079139948
1639426279302372000,3.9223720703125,1.0371528447061777,2.3244845653295516,-0.10620061309337615
1639426279312335000,3.932335205078125,1.334702543607354,1.9062614913463591,-1.5923893109366296
1639426279322297900,3.9422978515625,2.0813193675667048,2.9917478665888306,-1.70132373290807
1639426279332260900,3.9522607421875,2.236882854244113,3.2603917890012264,-0.19397183552682398
1639426279342222800,3.962222900390625,0.27822014453113075,3.5830431959331035,0.50914662296772
1639426279352185900,3.972185791015625,-1.1648019040197133,3.0773703865557906,0.09703647890686988
1639426279362149000,3.982149169921875,-0.5814058034926652,2.930075546529889,-1.1321432047381996
1639426279372112000,3.99211181640625,0.5642126766294241,2.356794597303867,-1.4942419481784104
1639426279382075000,4.002074951171875,1.246885143944621,2.002280317643285,-1.9054235792174934
1639426279392036900,4.012036865234375,1.346769413498044,1.9305974757015705,-1.5757593709141016
1639426279402000000,4.021999755859375,0.9232125772714614,2.092719297981262,-1.5441455045104027
1639426279411963000,4.031962890625,0.3041635640829801,1.6574726084828375,-1.2995295234173536
1639426279421926000,4.04192578125,-0.19684417609274385,1.5414263086795805,-1.0612515131741762
1639426279431889000,4.051888916015625,-0.546659484282136,1.4617016145795583,-1.278933310112357
1639426279441851000,4.061850830078125,-0.4873918872773647,1.5018746350139378,-0.892748465424776
1639426279451814000,4.07181396484375,-0.30598785690069197,1.8313450743108988,-0.46627194235920905
1639426279461777000,4.08177685546875,-0.1975304047912359,1.7737147231191395,-0.9312374782949685
1639426279471740000,4.091739990234375,0.05726677857637405,1.1603782423585653,-1.2305857510507106
1639426279481703000,4.101702880859375,-1.3970762899339197,1.2749503779560327,-0.2305915473937988
1639426279491665000,4.111664794921875,-1.984157800975442,1.3410796774238347,0.24703356362879275
1639426279501628000,4.1216279296875,-2.6511259186804295,-1.4506734400868415,-1.3914999511063098
1639426279511591000,4.1315908203125,-3.6145413270026445,-3.316314167231321,-1.0633832645058632
1639426279521554000,4.141553955078125,-1.6114169597506522,-3.288710120990872,7.731672694936394
1639426279531516700,4.1515166015625,1.9422405672222374,-3.6106408124327656,9.052613839694857
1639426279541479000,4.16147900390625,5.396160539636016,-1.628247098520398,-1.6836387308746574
1639426279551442000,4.17144189453125,3.4953280876010653,0.6679729108333587,-2.567885325413942
1639426279561405000,4.181405029296875,0.5116928003191947,1.6420120045006275,0.44193361991643904
1639426279571368000,4.191367919921875,-1.0524012672424317,0.5691407806813716,0.288633986517787
1639426279581330700,4.20133056640625,-1.3411381296128033,-0.2796171518474817,-1.2798089239031076
1639426279591293000,4.21129296875,-0.9060825787723064,-0.4505401202201843,-0.47581601577401156
1639426279601256000,4.221255859375,0.02439852819740772,-0.19645605355799198,0.6095633919626474
1639426279611219000,4.231218994140625,0.9303273777127266,0.10567454339265822,0.6101806470781564
1639426279621182000,4.241181884765625,0.6478267793834209,-1.6500924351036548,0.23901567686796188
1639426279631145000,4.25114501953125,-0.6442243709772825,-3.240190127971768,0.08151566917002201
1639426279641107000,4.26110693359375,-1.5253712459355593,-2.1936726580709216,0.01272387249469757
1639426279651070000,4.271070068359375,-0.8800824605971574,0.09028729690760373,0.005412088176608086
1639426279661033000,4.281032958984375,0.29321254647970196,1.2906585269585251,-0.008002104669809341
1639426279670996000,4.290995849609375,0.6048965691953897,1.5853291632920503,-0.5503115770488977
1639426279680959000,4.300958984375,-0.06336918710470199,1.4736697002708912,-0.8436766837418079
1639426279690920700,4.310920654296875,-0.6678969229876994,1.0098390135839581,-0.6960270389288663
1639426279700884000,4.320884033203125,-0.5527993022114038,0.4482707139834761,-0.5064934781104325
1639426279710847000,4.330846923828125,-0.03306698782145977,0.26300270165503026,-0.23181144457757472
1639426279720810000,4.34081005859375,0.08576923496127128,-0.1946422821342945,0.2265279512166977
1639426279730773000,4.35077294921875,-0.023555647632479665,-1.3282120125442742,0.4178764525026083
1639426279740734700,4.360734619140625,0.04265431585609913,-1.614731783387065,0.2702788301378488
1639426279750697700,4.37069775390625,0.022687048104405402,-0.8402665830373763,-0.4504927739471197
1639426279760661000,4.380660888671875,0.19628537316620348,0.2476145783871412,-1.0042360790103673
1639426279770624000,4.3906240234375,0.26722061161100863,0.4705833758175373,-1.1274871956259012
1639426279780587000,4.4005869140625,0.1736281356781721,0.22864392045736312,-0.7133382392138242
1639426279790548700,4.410548828125,0.2159317384004593,0.16410101339817046,-0.13733692511320114
1639426279800511700,4.42051171875,0.18657763362228869,-0.4213298078268766,0.22564006246626375
1639426279810474800,4.430474853515625,0.036433833906054494,-0.42249534447491166,0.7669061632722616
1639426279820438000,4.44043798828125,0.11746376538574695,-0.4611363330364227,0.047184360501170156
1639426279830401000,4.450401123046875,-0.05506254653036594,-0.8104232334375381,-0.49590311051309105
1639426279840362800,4.46036279296875,-0.38899464141130446,-1.001817911952734,-0.25507716935276986
1639426279850325800,4.47032568359375,-0.5248112250894308,-0.9029898734539746,-0.03548983105421066
1639426279860288800,4.480288818359375,-0.16919161453545092,-1.14957101714015,0.12289222017526626
1639426279870251800,4.490251708984375,-0.0494961445748806,-1.1207967580765485,-0.011814356434345245
1639426279880215000,4.500215087890625,-0.05445347472131252,-1.0733885256916285,-0.16218787325322628
1639426279890177000,4.510177001953125,-0.36532793461978436,-1.0403612853586672,-0.47942543844282626
1639426279900139800,4.520139892578125,-0.2537748545825481,-0.845002379387617,-0.4935796360015869
1639426279910102800,4.530102783203125,0.1015232689321041,-0.35108021355867386,-0.2419850480675697
1639426279920065800,4.540065673828125,0.2580377727240324,-0.1069867950350046,0.10761223345696926
1639426279930028800,4.55002880859375,0.14282149400413036,-0.32511575121879577,0.21184008517265318
1639426279939991000,4.559990966796875,-0.24019816465079782,-0.9329179787278175,-0.24650690940618514
1639426279949953800,4.569953857421875,-0.5398650018364191,-1.4689748204529285,-0.963913420972228
1639426279959916800,4.579916748046875,-0.5109346754282713,-1.3316221132487058,-1.4315408695936203
1639426279969879800,4.5898798828125,-0.2284966209411621,-0.40406536929309367,-1.4486393039107321
1639426279979842800,4.5998427734375,0.1911959410727024,0.7443821967750788,-0.7731734069734811
1639426279989805000,4.60980517578125,0.6415420000255108,1.141956450483203,0.09008242198526858
1639426279999767800,4.619767822265625,1.070818967464566,1.0424737474679946,0.5714598712787031
1639426280009730800,4.629730712890625,1.1500649381369352,0.26954233255684373,0.8276312656089663
1639426280019693800,4.63969384765625,0.6221551625102758,-1.0291694447368382,0.7670058242544532
1639426280029656800,4.64965673828125,-0.29881752687990665,-1.7311556843310594,0.3871452141523361
1639426280039619000,4.659619140625,-1.1803501862853765,-1.0936948161393403,0.0566764114677906
1639426280049582000,4.66958203125,-1.5112030198514461,0.45518297758996484,0.10921382343471049
1639426280059544800,4.679544921875,-1.3389450034826993,1.5207628753572702,0.6842804870337248
1639426280069507800,4.6895078125,-0.677530428251624,2.014592102205753,0.9915993002772331
1639426280079470800,4.699470947265625,0.24320494525134562,2.0849229450166225,1.4063333631008863
1639426280089432800,4.709432861328125,1.058527056646347,2.026302413743734,1.727524926613271
1639426280099396000,4.71939599609375,1.2628016750007867,1.4335223987996577,1.5519313360810278
1639426280109358800,4.72935888671875,0.8654881180554628,0.8882330338269472,0.5921937394887209
1639426280119321900,4.73932177734375,-0.07465630479454993,0.5240606989830732,-0.21745324887931344
1639426280129284900,4.749284912109375,-1.4400830724895,-0.020368249768018723,-0.4159001839935779
1639426280139246800,4.759246826171875,-3.578224397474527,-1.118553947585821,-0.2148679085612297
1639426280149209900,4.7692099609375,-4.426618757387995,-1.187456803420186,1.0496183585256338
1639426280159173000,4.779173095703125,-4.1979292442232365,-1.468335938027501,1.6689724921405313
1639426280169135900,4.789135986328125,-3.539104100963473,-1.1658721635997296,1.911148094344139
1639426280179099000,4.799098876953125,-2.503683194616437,-1.2197720960915088,2.8090450285732746
1639426280189060900,4.809060791015625,-1.0280775578469037,-1.9418775791287421,1.9237457101106643
1639426280199023900,4.81902392578125,0.8614315361410378,-2.643664204497635,0.4106950165659189
1639426280208987000,4.82898681640625,2.6143834572166202,-3.2837527908444404,-1.3123901740342379
1639426280218950000,4.838949951171875,3.3312294122904538,-3.757738960842788,-1.841361441412568
1639426280228913000,4.848912841796875,2.772441098797321,-1.9231801851823924,-1.6354969235181807
1639426280238875000,4.858875,-0.29230127685368057,0.08982114070057869,-0.7504661928638815
1639426280248838000,4.868837890625,-1.5628759239435195,1.842185909537971,-0.9133417561203241
1639426280258801000,4.87880078125,0.10144786560833453,3.504568209633231,-1.564788187305629
1639426280268764000,4.888763916015625,3.389543654093146,4.157162057287991,-1.3500097105935216
1639426280278727000,4.898726806640625,4.885809801575541,4.033703143140674,0.843937672765553
1639426280288689000,4.90868896484375,3.4189708241075274,2.9572461697891352,3.312392025351524
1639426280298652000,4.91865185546875,0.8798878148078918,1.5506825050637125,4.049356054824591
1639426280308615000,4.928614990234375,-1.2868798852026462,-0.6717348937153815,2.998605477398634
1639426280318578000,4.938577880859375,-2.26723181527853,-2.213967550341785,1.1918828031688928
1639426280328541000,4.948541015625,-1.7755571361154316,-1.2576669424608349,-0.5767626538619399
1639426280338503000,4.9585029296875,-0.7327320909917354,1.2384393871605395,-1.4082491335943341
1639426280348466000,4.9684658203125,0.21010873133540153,1.632415324115753,-1.8284771176591514
1639426280358429200,4.97842919921875,0.5403577537894249,0.4019464774429798,-2.3199533516407014
1639426280368392200,4.98839208984375,-0.12281798589527607,-0.38547611189633607,-2.7311209541544317
1639426280378355200,4.998355224609375,-0.8149298972070217,-0.8069304228857159,-2.4882208370685577
1639426280388317400,5.0083173828125,-1.19011637801826,-1.5620426879897713,-0.982709014596045
1639426280398280400,5.018280517578125,-0.9936457114130258,-3.130145698931813,1.0687231642290949
1639426280408243200,5.0282431640625,-0.7506693142205476,-4.772690495134889,2.867647439667582
1639426280418206200,5.038206298828125,-0.642828532704711,-4.098034453275799,3.7357854877099395
1639426280428169200,5.048169189453125,-0.03663549395799637,-3.3128561357319355,4.145058362518251
1639426280438131500,5.05813134765625,0.22173370267748832,-2.16636291860193,4.5954608278334135
1639426280448094500,5.068094482421875,-0.2635667652785778,-3.288484495541453,5.951913430956005
1639426280458057200,5.07805712890625,-1.9175602994740009,-1.6385487123042344,6.485840859436989
1639426280468020200,5.088020263671875,-0.819683229213953,-2.014090290163457,4.842833998680114
1639426280477983200,5.097983154296875,1.7933096504271029,-2.1713787009373307,1.342936995728314
1639426280487945200,5.1079453125,4.414432060509919,2.0453119423791764,-1.687063736887276
1639426280497908500,5.117908447265625,3.6612627461671825,3.228200707231462,-1.9484563729971647
1639426280507871200,5.127871337890625,3.810459035900235,3.9781627499654886,-0.8843532697841524
1639426280517834200,5.137834228515625,2.103448781788349,8.776540644064545,2.1715093415796756
1639426280527797200,5.14779736328125,-0.6336380950331687,7.448093653720617,2.4902108418419955
1639426280537759200,5.15775927734375,-2.2870073598504064,5.836767294862866,2.0031459945619106
1639426280547722200,5.16772216796875,-1.7297651067554949,4.871900518688559,-0.40945115398466586
1639426280557685200,5.177685302734375,-0.14347615852057932,4.747145134989917,-3.7630271303787826
1639426280567648300,5.187648193359375,0.42524435092210766,4.229545740975439,-5.836403722247481
1639426280577611300,5.197611328125,0.1833136633902788,3.7240874511316417,-4.605464919975399
1639426280587573200,5.2075732421875,-0.2116822642624378,3.498581536439061,-1.2622343965068459
1639426280597536300,5.217536376953125,-0.004279869276285171,2.069524008093774,0.7234896308720111
1639426280607499300,5.227499267578125,0.08247603863477707,0.9719456285193562,1.8879221170574425
1639426280617462300,5.237462158203125,0.022848960667848587,1.3266446170970796,2.1489467966377735
1639426280627425300,5.24742529296875,-0.19030279162526129,0.38783962615728373,2.011909146732092
1639426280637387300,5.25738720703125,0.6522931111425161,-2.98020531283319,2.1792598095759748
1639426280647350300,5.267350341796875,0.9463654893219471,-3.457895013524592,1.6197177551060915
1639426280657313300,5.277313232421875,0.8097510332643986,-1.5652752401702106,1.0693205456003545
1639426280667276300,5.2872763671875,0.6947931132197379,0.4392323981337249,0.6728294109538198
1639426280677239300,5.2972392578125,0.3340869931817055,2.064932588650286,0.39165070887804027
1639426280687201300,5.307201171875,-0.3744417999237776,3.4220825263872743,0.16348843445777891
1639426280697164300,5.317164306640625,-0.5629834270954132,3.9792055370166897,0.11283990497738122
1639426280707127300,5.327127197265625,-0.2828273460656404,3.643729427564144,0.18210370307862758
1639426280717090300,5.33709033203125,0.00007540332376956939,2.9140090856090186,0.4227048955723643
1639426280727053000,5.347052978515625,0.389001071152091,2.282624030199647,0.659078241237998
1639426280737016300,5.357016357421875,0.5891045413017273,1.7204671170562504,0.5195388376444577
1639426280746978300,5.366978271484375,0.6750058782100677,1.1176342023923993,0.7170750876545906
1639426280756941300,5.37694140625,-0.032386019819974896,0.3418643491849303,1.0927104812771082
1639426280766904300,5.386904296875,-0.3212988232791424,-0.5193211032405496,1.705055612912774
1639426280776867000,5.3968671875,-0.31127310382723805,-1.4176663657590747,2.092333805795014
1639426280786830000,5.406830078125,-0.47988662621378897,-2.372686578440666,2.165288859629631
1639426280796792300,5.416792236328125,-0.47315994830727576,-2.793109792816639,2.094304813607037
1639426280806755300,5.42675537109375,-0.6596236001610756,-2.980138092815876,1.5880179639846086
1639426280816718300,5.43671826171875,-0.7853823156833648,-2.8928254278048873,0.7423147428512573
1639426280826681300,5.446681396484375,-0.9447031090676784,-2.5126336860522627,0.003398410266637802
1639426280836644000,5.45664404296875,-1.1819435929566622,-1.7893457152321934,-0.4194441402107477
1639426280846606300,5.4666064453125,-1.097595330709219,-1.1144091028660534,-0.5624754775732755
1639426280856569300,5.4765693359375,-0.7764964139163494,-0.637571050567925,-0.7003916638791561
1639426280866532400,5.486532470703125,-0.19210311904549598,-0.4009232718750834,-0.805910139927268
1639426280876495400,5.496495361328125,0.39676644445657727,-0.3746729783311486,-0.7046341237545013
1639426280886458000,5.5064580078125,1.1226929470866918,-0.31068156767487526,-0.5212812973976135
1639426280896420400,5.51642041015625,1.8394670059680938,-0.1675219277575612,-0.1432248141080141
1639426280906383400,5.52638330078125,2.1311527812719344,-0.2290779279604554,0.4453384599238634
1639426280916346400,5.536346435546875,1.8125170397222041,-0.1959182934194803,0.9586234978705644
1639426280926309400,5.546309326171875,1.079413192808628,-0.07313128718435764,1.2557932575434445
1639426280936272400,5.5562724609375,0.2850987981289625,0.022468144656717776,1.4183973103821277
1639426280946234000,5.566234130859375,-0.3284288212895393,0.041055356226861475,1.4023212048500775
1639426280956197400,5.576197265625,-0.7674094366192817,0.067091714759171,1.2657178547084331
1639426280966160400,5.586160400390625,-1.0398995130658149,0.08932458935528993,1.1517068601250648
1639426280976123400,5.596123291015625,-1.2062947748810051,0.08838672398328781,1.0875509065568447
1639426280986086400,5.60608642578125,-1.2403700629621743,0.05233633643686771,1.065966266736388
1639426280996048100,5.616048095703125,-1.2184317873984574,-0.09209902250468731,1.0690706624925137
1639426281006011100,5.62601123046875,-1.097149340507388,-0.2123641090467572,1.1787930199712515
1639426281015974400,5.635974365234375,-0.8379132979094982,-0.2950844778314233,1.3939683870464563
1639426281025937400,5.6459375,-0.47467035287022585,-0.34561025771498677,1.7613146757513283
1639426281035900400,5.655900390625,-0.08773381303250789,-0.28223405634760856,2.2494617653101683
1639426281045862100,5.665862060546875,0.28226562052965165,0.017383680999279023,2.7306302480280396
1639426281055825200,5.6758251953125,0.5620137052804232,0.4113268847286701,3.2506969089388846
1639426281065788200,5.6857880859375,0.6504582969307899,0.820348999646306,3.5350042644292112
1639426281075751400,5.69575146484375,0.6170300745815038,1.152457970753312,3.4885388658523557
1639426281085714400,5.70571435546875,0.5898194115728139,1.362403328220546,3.045470688948035
1639426281095676200,5.71567626953125,0.4897995329409837,1.5223679724663495,2.2721640109837056
1639426281105639200,5.72563916015625,0.35883506546914573,1.588037837728858,1.473511294838786
1639426281115602200,5.735602294921875,0.18934709833562374,1.5734753516301512,0.762897512152791
1639426281125565200,5.745565185546875,-0.05652794290781021,1.4957432926520704,0.24241467165648936
1639426281135528400,5.755528564453125,-0.31194355043470856,1.465542946308106,-0.11265782640874385
1639426281145490200,5.765490234375,-0.46756548930108544,1.474388808325678,-0.39549744743406773
1639426281155453200,5.775453125,-0.6148287651449441,1.439799287112057,-0.7910340578347445
1639426281165416200,5.785416259765625,-0.7221247722595929,1.4588684369802474,-1.1431482906162738
1639426281175379200,5.795379150390625,-0.5462456427842378,1.4624766906052826,-1.3728133708149195
1639426281185342200,5.80534228515625,-0.1989507929831743,1.2147168585285544,-2.0342238543927667
1639426281195304200,5.81530419921875,0.152025960201025,0.5612509042143822,-3.053007514193654
1639426281205267200,5.82526708984375,0.3644540743947029,-0.41217707181721924,-4.15627796792984
1639426281215230200,5.835230224609375,0.407705187100172,-1.6225301821783185,-5.077997676295042
1639426281225193200,5.845193115234375,0.07616729387938975,-2.579967685134709,-5.2008109860152
1639426281235156200,5.85515625,-0.38690731374323367,-2.364486320850253,-3.8984377636045213
1639426281245119200,5.865119140625,-0.7527721317186952,-1.243150487460941,-2.1609271572887896
1639426281255081200,5.875081298828125,-1.1856971002712846,-0.36556890376880763,-1.2825555922627447
1639426281265044200,5.885044189453125,-1.7572884889751672,0.008106441827118397,-0.768061763048172
1639426281275007200,5.89500732421875,-2.1148425747230646,0.007447247266024351,-0.4827700726956129
1639426281284970200,5.90497021484375,-2.02923846719563,-0.11190554673671722,-0.48861938324570653
1639426281294933200,5.914933349609375,-1.576659242363274,-0.13143193885311483,-0.6111684890717267
1639426281304895200,5.924895263671875,-1.107796698988974,-0.34819632868543265,-1.0740934590905904
1639426281314858200,5.934858154296875,-0.9154907508477568,-0.6076490827739238,-1.606018315577507
1639426281324821200,5.9448212890625,-0.8623615104675293,-0.6475286732196808,-1.9311404965370893
1639426281334784300,5.9547841796875,-0.7593722606360912,-0.5896466853544116,-2.0827648901998996
1639426281344747300,5.964747314453125,-0.7523819633573293,-0.5962094048708677,-2.0232073703378437
1639426281354709500,5.97470947265625,-0.8445832771927118,-0.44257922434359787,-1.7892004615426063
1639426281364672000,5.984672119140625,-0.9259601224139332,-0.21946415031030772,-1.5283488004416226
1639426281374635000,5.994635009765625,-1.0198226474598049,-0.12235767490714787,-1.1221885046958924
1639426281384598000,6.004597900390625,-1.0891349608778953,0.050341947749257085,-0.7914894003868103
1639426281394561000,6.01456103515625,-0.9764423554167151,0.22634148873388765,-0.5376134235173463
1639426281404523000,6.02452294921875,-0.8612780991449952,0.37157384327203036,-0.2673193958103657
1639426281414486000,6.034486083984375,-0.7452820682242512,0.4768984041832387,-0.05619418090879917
1639426281424449000,6.044448974609375,-0.5018494516968727,0.4099044507101178,-0.11327098987102507
1639426281434412000,6.054412109375,-0.21434183886051178,0.20031828194409607,-0.32701077118515964
1639426281444375000,6.064375,-0.0021250293299555777,0.07018997303545474,-0.5339221677839756
1639426281454337000,6.0743369140625,0.07458265503644942,0.03625672377347946,-0.5753314520150423
1639426281464300000,6.084300048828125,0.011786299383640288,0.08029343389868736,-0.5800339306175708
1639426281474263000,6.094262939453125,-0.04873889646679163,0.001164805995672941,-0.5261515337824821
1639426281484226000,6.10422607421875,-0.21698387780189513,-0.09538432778567076,-0.43755087478756904
1639426281494189000,6.11418896484375,-0.49555327416211364,-0.15065627928301692,-0.4105471325278282
1639426281504151000,6.124151123046875,-0.8131777928426861,-0.1914801648415625,-0.5133405675262213
1639426281514113800,6.13411376953125,-1.1226754114300013,-0.20781156030893325,-0.7102846968621015
1639426281524077000,6.1440771484375,-1.3442816883355377,-0.1540580505505204,-0.9751298115134238
1639426281534040000,6.1540400390625,-1.5887749198317527,-0.05578150845468044,-1.2488427077531814
1639426281544003000,6.164003173828125,-1.851531537771225,0.07573533220291137,-1.5173030902922153
1639426281553965000,6.173965087890625,-2.0096435398876666,0.19437603241354226,-1.767667844170332
1639426281563928000,6.183927978515625,-2.0891747572422026,0.2941287845417857,-2.0208891565233467
1639426281573890800,6.193890869140625,-1.8461235412478445,0.47341363080739973,-2.2834020288348196
1639426281583854000,6.20385400390625,-1.3221838382959366,0.7141942715212702,-2.3700182360142468
1639426281593817000,6.213817138671875,-0.6452098748832941,0.8482757019698619,-2.199987248045206
1639426281603780000,6.223780029296875,0.11220657550990581,0.8018792769759893,-2.025567669728398
1639426281613742000,6.2337421875,0.951391793051362,0.7072241402477025,-1.9847125122487543
1639426281623704800,6.243704833984375,1.503129603511095,0.6402160121187568,-2.0680682563275097
1639426281633667800,6.253667724609375,1.7534440885066984,0.6062956223383545,-2.2316180655837057
1639426281643631000,6.263631103515625,1.924012836614251,0.5124398192942142,-2.4542145225703713
1639426281653594000,6.273593994140625,2.1262194165229795,0.36735184166282414,-2.667208453953266
1639426281663556000,6.28355615234375,1.5049281773656606,0.16453765124976635,-2.5569354768544432
1639426281673519000,6.29351904296875,0.030461189237236976,-0.1741770017325878,-2.0183108304679394
1639426281683481900,6.30348193359375,-1.228384441614151,-0.5464981562405824,-1.2384545847296715
1639426281693444900,6.31344482421875,-1.7069687530577182,-0.8290499002352356,-0.026355507484078406
1639426281703408000,6.323408203125,-1.855292936131358,-1.1597896288156508,1.416018890812993
1639426281713370000,6.3333701171875,-2.0552298175424335,-1.660392587582767,2.593064774855971
1639426281723333000,6.3433330078125,-2.2960598503559826,-1.9482424379855394,3.234737123262882
1639426281733295900,6.3532958984375,-2.399337854000926,-2.1043299485370515,3.4917940682560205
1639426281743259000,6.3632587890625,-2.1737667651176453,-2.1034648561403153,3.3262013549953697
1639426281753222000,6.373221923828125,-1.7149761184245347,-1.855332391358912,2.8878882636636494
1639426281763184000,6.38318408203125,-1.2926304115533829,-1.372038294789195,2.5915754130810496
1639426281773147100,6.393147216796875,-1.200824819037318,-0.6985378527060151,2.6461241648703813
1639426281783110000,6.40310986328125,-1.4459107557296753,0.01356909114718437,3.158420776301622
1639426281793073000,6.413072998046875,-1.4303554592013359,0.6770332923844457,3.91421927010417
1639426281803036000,6.423035888671875,-1.0398463215738534,1.1343389612168073,4.468569893410802
1639426281812998100,6.432998046875,-0.20366788463294505,1.2589055443450807,4.4291883156150575
1639426281822961200,6.442961181640625,0.9561410334050655,1.312850777283311,4.092228397345543
1639426281832924200,6.452924072265625,1.7704694575875997,1.2072998602703213,3.7336815011680122
1639426281842887000,6.462886962890625,2.192750867050886,0.9854428234741092,3.1748283057451245
1639426281852850000,6.472849853515625,2.580060331854224,0.7412292857021093,2.341509934410453
1639426281862812200,6.482812255859375,2.953027967572212,0.37810938252061604,1.4947037204712628
1639426281872775200,6.492775146484375,3.21118615180552,-0.04396335262805223,0.7767617868542671
1639426281882738200,6.50273828125,3.3095266990482806,-0.5069686944067477,0.09552490530014038
1639426281892701000,6.512700927734375,3.209080119436979,-0.8962336771920323,-0.491292986369133
1639426281902664000,6.522663818359375,3.0830963629871606,-1.0634577910467982,-0.7521347105979919
1639426281912626000,6.5326259765625,2.8263597359895702,-1.010437856259942,-0.7574281408309936
1639426281922589200,6.542589111328125,2.5127964753985403,-0.9344692998230457,-0.6720236475288868
1639426281932552200,6.55255224609375,2.1088526866585013,-0.8790832204267383,-0.5739584100961684
1639426281942515200,6.56251513671875,1.7591192115336656,-0.7891793698787689,-0.6793430306315421
1639426281952478000,6.57247802734375,1.6048738217175005,-0.5289528549388051,-1.2402841382443903
1639426281962440000,6.58243994140625,1.263849138227105,-0.15639263097792863,-2.0645196239352224
1639426281972403000,6.59240283203125,0.7478752995878457,0.13461159180253743,-3.39324776930809
1639426281982366200,6.6023662109375,0.8043909675359725,0.5491317196145653,-4.8435927080929275
1639426281992329200,6.6123291015625,1.0867863519251346,1.4295682543464003,-5.795738534381985
1639426282002292000,6.6222919921875,1.1715940483778715,2.6772613536730407,-5.521303753608465
1639426282012254000,6.63225390625,0.936835444432497,3.8062133611544966,-3.564301086062193
1639426282022217000,6.642217041015625,0.13960954622030258,3.9388270571380852,-0.7719827358841895
1639426282032180000,6.652179931640625,-1.0916431443065404,3.3903093777686357,0.9227864608138799
1639426282042143200,6.662143310546875,-2.5899837599754334,2.888547896616161,1.1462889267295597
1639426282052106000,6.67210595703125,-3.693539460393786,2.8621701773002743,1.3366735514193773
1639426282062069000,6.682069091796875,-4.108372307416796,3.0132766845688224,1.6970120071887969
1639426282072031000,6.692031005859375,-3.8745097755283116,2.7262594855979083,1.2673936789661646
1639426282081994000,6.701993896484375,-2.9539912596464157,2.394545943549275,1.0973989313542842
1639426282091957000,6.71195703125,-1.949962685906887,1.9769544454678891,1.6355530376195906
1639426282101919000,6.7219189453125,-1.2043284432440995,1.3554884342655538,2.484193481248617
1639426282111882000,6.731882080078125,-0.5514905577003956,0.7666884288683533,3.1350960148155687
1639426282121845000,6.741844970703125,-0.09936579863727092,0.374043740516901,3.656272682794928
1639426282131808000,6.75180810546875,0.1889519615381956,0.31301147192716594,4.070827881920337
1639426282141771000,6.76177099609375,0.743794167754054,0.7212111645460129,4.090068004441261
1639426282151733000,6.77173291015625,1.447634510782361,1.595786552159488,3.733635908460617
1639426282161696000,6.781696044921875,1.9432301627814768,2.2245409668043257,3.162176913964748
1639426282171659000,6.791658935546875,2.0629162803918124,2.314383150292933,2.4570453620821238
1639426282181622000,6.8016220703125,1.940357822215557,2.1273034123674033,1.6070920822888612
1639426282191585000,6.8115849609375,1.7786738068312407,1.9504338105499743,0.673116118940711
1639426282201547000,6.821547119140625,1.6745985153287648,1.7646730462685227,-0.3165899149358272
1639426282211510000,6.831510009765625,1.5230284822016953,1.465851719996333,-1.115525539675355
1639426282221473000,6.84147314453125,1.3179238427639006,1.2107763042092323,-1.6447405526816843
1639426282231436000,6.85143603515625,1.1151368326187132,0.9529799390256404,-1.8794079712122678
1639426282241399000,6.86139892578125,0.9632499886274337,0.4561480232298374,-1.89085524789989
1639426282251361000,6.871361083984375,0.908800605559349,-0.10042378325760364,-1.8225293151706456
1639426282261324000,6.881323974609375,0.952244025966525,-0.5251122538626194,-1.6342267574518918
1639426282271287000,6.891287109375,1.0845154843837022,-0.7832230918228625,-1.295859894993901
1639426282281250000,6.90125,1.2330752297788858,-1.0431310423329472,-1.0240998863875865
1639426282291213000,6.911213134765625,1.2971627942860127,-1.3374015734329818,-0.9738345110058784
1639426282301175000,6.921175048828125,1.16484515863955,-1.556032341659069,-0.9781664027303457
1639426282311137800,6.9311376953125,0.72600950473845,-1.6877648708939552,-0.8997574674040079
1639426282321101000,6.94110107421875,0.15127894122600555,-1.696463725656271,-0.6690729810297489
1639426282331064000,6.95106396484375,-0.3586322363734245,-1.6292776106119156,-0.4097521827578544
1639426282341027000,6.961027099609375,-0.6425462086319923,-1.660461268904805,-0.03634089492559433
1639426282350990000,6.970989990234375,-0.6658312226295471,-1.6747282791882752,0.16947919930517671
1639426282360952600,6.98095263671875,-0.7668389432549476,-1.5595698681354522,0.4475421074479818
1639426282370915600,6.99091552734375,-0.9739870712190866,-1.3285288234084844,0.7233738955378533
1639426282380878600,7.000878662109375,-1.1995263036593795,-0.9057879797399043,0.863820477104187
1639426282390841600,7.010841552734375,-1.413631411154568,-0.503523522388935,0.9152402832180261
1639426282400804900,7.020804931640625,-1.5447726964980364,-0.22790508478879928,0.9535638763934373
1639426282410766600,7.0307666015625,-1.697718694153428,0.06769932526350021,0.9601157822549342
1639426282420729600,7.0407294921875,-1.8583400487422943,0.2420335633844137,0.9686591541945934
1639426282430692600,7.050692626953125,-2.0881232023626564,0.2731646147072315,0.9871417363464832
1639426282440655600,7.060655517578125,-2.37742617418319,0.1441261468619108,0.8438672378778457
1639426282450618600,7.07061865234375,-2.55852712996006,-0.09752046303153038,0.36766602217853067
1639426282460580600,7.08058056640625,-2.5894796098455783,-0.44353579441606994,-0.13341945940852165
1639426282470543600,7.090543701171875,-2.3430714846387506,-0.8180518286198377,-0.346467751327157
1639426282480506600,7.100506591796875,-1.8777268862575291,-1.1216770480424165,-0.2057142957687378
1639426282490469600,7.1104697265625,-1.3786916151985524,-1.2776409322142601,0.20580022048652172
1639426282500432600,7.1204326171875,-0.9640522449210286,-1.290364220187068,0.7562222721725702
1639426282510394600,7.13039453125,-0.6636696606814861,-1.0650643494606018,1.2843342923730612
1639426282520357600,7.140357666015625,-0.45824850264042616,-0.7670107926905154,1.6377432411402464
1639426282530320600,7.150320556640625,-0.3601356266736984,-0.7288859369575977,1.8168635444939136
1639426282540283600,7.16028369140625,-0.4241366819411516,-0.8418488837927579,1.9665712908804416
1639426282550246700,7.17024658203125,-0.5494719113543629,-1.0092021769851445,2.025834796231985
1639426282560209700,7.180209716796875,-0.6078863986611366,-1.1781868707716465,1.9415520004361866
1639426282570172700,7.190172607421875,-0.6073883860111237,-1.3320347857028245,1.846499388822913
1639426282580134700,7.200134765625,-0.5096615867525339,-1.476023569920659,1.5618272916734217
1639426282590097700,7.21009765625,-0.39639644210040564,-1.674545908358693,0.8861392764180898
1639426282600060700,7.220060791015625,-0.27608605511188505,-1.8847183525800704,-0.10375029733180999
1639426282610023700,7.230023681640625,0.04179331511259079,-2.111627412068844,-1.4400532618731259
1639426282619986700,7.239986572265625,0.4854921911358833,-2.193597839269042,-2.6157851407080885
1639426282629948700,7.24994873046875,0.9940092840284108,-1.9554004930466413,-3.3463837268024683
1639426282639911700,7.25991162109375,1.3604741137236356,-1.6451956029728054,-3.6241210562527177
1639426282649874700,7.269874755859375,1.6800395373389123,-1.3048510107010602,-3.5370272946894166
1639426282659837700,7.279837646484375,1.8761758574232459,-0.8747595120087266,-3.2022640096813437
1639426282669800700,7.28980078125,1.9307628953963516,-0.3845487679183483,-2.6116268519848584
1639426282679763700,7.299763671875,1.8301666781812904,0.08168079660385846,-1.7329682867109775
1639426282689725700,7.3097255859375,1.8474194262772798,0.539482724520564,-1.0838678341299295
1639426282699688700,7.319688720703125,1.852737990951538,1.006974564063549,-0.7711889551579951
1639426282709651700,7.329651611328125,1.5796481950461863,1.4509399820685385,-0.544165913900733
1639426282719614700,7.33961474609375,0.9355810604572296,1.8535650894254445,-0.4375912067979574
1639426282729577700,7.34957763671875,0.0010363573104143142,2.1132658269256352,-0.38131168569326396
1639426282739539700,7.359539794921875,-0.716969873714447,2.045568255227804,-0.2520341483950615
1639426282749502700,7.369502685546875,-1.1490952163219452,1.4829153752610087,0.02521335171163082
1639426282759465700,7.3794658203125,-1.4561995100319385,0.5550418204411864,0.5122434199392796
1639426282769428700,7.3894287109375,-1.7252146038442848,-0.3508361756697297,0.8456675652980804
1639426282779391700,7.399391845703125,-1.749129732438922,-0.9636991936996578,0.7145271567374467
1639426282789353700,7.409353759765625,-1.43267893371284,-1.394699623930454,0.15592296763956545
1639426282799316700,7.419316650390625,-0.8866580395951866,-1.551241307990253,-0.730375298732519
1639426282809279700,7.42927978515625,-0.3908347163200378,-1.3165735971987247,-1.7485761902093886
1639426282819242800,7.43924267578125,-0.21482290037572382,-0.6754942462489009,-2.5327812788069246
1639426282829205800,7.449205810546875,-0.20087854617536066,0.16775281390398739,-2.6607915726482867
1639426282839167500,7.45916748046875,-0.0024029694885015487,1.1746765245631337,-1.987846134099364
1639426282849130800,7.469130859375,0.2466916183233261,2.1873142289549112,-0.9450736959457396
1639426282859093800,7.47909375,0.19566753352880475,2.706733824133873,0.13977730400264263
1639426282869056800,7.489056884765625,-0.09506254848539829,2.5998674406081435,1.2135527831852435
1639426282879019800,7.499019775390625,-0.44487025789022444,2.189287574854493,2.209774482566118
1639426282888982800,7.508982666015625,-0.6396683151081204,1.5943761008396744,3.0645354549020527
1639426282898944500,7.518944580078125,-0.6321043095946312,0.9764368024587631,3.7000837674707174
1639426282908907800,7.52890771484375,-0.6900938494876027,0.5299570635452866,3.9074090055674313
1639426282918870800,7.538870849609375,-0.9506547109484672,0.3952811743348837,3.837779004502296
1639426282928833800,7.548833740234375,-1.1952891044810414,0.5444707420662045,3.686073946818709
1639426282938796800,7.558796875,-1.2734957952335477,0.6824918500512838,3.393091117441654
1639426282948758500,7.568758544921875,-1.1652867649272083,0.8803627388432621,3.1574446247458456
1639426282958721500,7.578721435546875,-1.025078376030922,1.2045844638317822,3.0537036797642707
1639426282968684800,7.588684814453125,-0.8648556653708219,1.4606842542305587,3.0344442680209873
1639426282978647800,7.598647705078125,-0.7218260815739631,1.6493015769869088,3.202990570390224
1639426282988610800,7.60861083984375,-0.5800329077042639,1.7840166291639208,3.572032557097077
1639426282998572500,7.618572509765625,-0.46140521310567856,1.9475427652835844,4.000838399893045
1639426283008535600,7.62853564453125,-0.3111553226664662,2.0131015713870526,4.321631027215719
1639426283018498600,7.63849853515625,-0.11955942249074578,2.0518229317083954,4.560992156520485
1639426283028461600,7.648461669921875,0.03571268002465367,2.1856810747951267,4.807330723622441
1639426283038424800,7.6584248046875,0.20324512917622922,2.308871693395078,4.905492991688847
1639426283048386600,7.668386474609375,0.37697687135934826,2.378362285989523,4.719147997778654
1639426283058349600,7.678349609375,0.5113219211801886,2.411600246463716,4.214678134450316
1639426283068312600,7.6883125,1.0628981113374232,2.0082894949302075,3.3122926566302775
1639426283078275600,7.698275634765625,1.8996843049131333,1.1614973095163703,2.0869944905936717
1639426283088238600,7.708238525390625,2.859994294565916,-0.05926525891721248,0.6292348916381597
1639426283098201900,7.718201904296875,4.44645450771451,-0.700098818412423,-0.6161164668679237
1639426283108163600,7.72816357421875,6.171085174190997,-0.9437176051616668,-1.9468296485781669
1639426283118126600,7.738126708984375,4.843489539979398,-1.8741782538652418,-3.9201802243351933
1639426283128089600,7.748089599609375,1.9476269364356993,-2.102801716056466,-6.455899310159682
1639426283138052600,7.758052490234375,-0.5045534499585628,-1.0010708929777146,-8.335787173843384
1639426283148015600,7.768015625,-1.082228688620776,0.7012754609763622,-8.688736103883386
1639426283157977600,7.7779775390625,-0.470535445022583,1.7037176423072813,-7.905612965303659
1639426283167940600,7.787940673828125,0.872877789915353,2.068748639807105,-6.035183250316977
1639426283177903600,7.797903564453125,1.6237877810239791,0.5135702846288681,-4.280924922817945
1639426283187866600,7.80786669921875,1.6022504874765873,-2.1423317624121903,-2.8618513206094502
1639426283197829600,7.81782958984375,1.4681797245524824,-3.804468271052837,-1.7897861524760723
1639426283207791900,7.8277919921875,1.2143161687731743,-4.06490170674175,-0.9401590358972549
1639426283217754600,7.837754638671875,0.9784403973661363,-3.4697067396104333,-0.2954378213137388
1639426283227717600,7.847717529296875,0.10924465696439147,-2.9612241335093974,-0.07381459327340126
1639426283237680600,7.8576806640625,-0.8854409188903868,-2.6376804539129135,-0.035597967603802676
1639426283247643600,7.8676435546875,-1.9254468149401247,-2.251618066561222,0.13012158690690995
1639426283257606700,7.877606689453125,-2.5886370215415955,-1.8069547294199466,0.04278583328127861
1639426283267568600,7.887568603515625,-2.701606398117542,-1.363130765712261,-0.16475801600217818
1639426283277531600,7.89753173828125,-2.3794321071781215,-0.9940744582191109,-0.30403964544236656
1639426283287494700,7.90749462890625,-1.8746189833700655,-0.7317717215269803,-0.16456395473480223
1639426283297457700,7.917457763671875,-1.284879797426611,-0.492853952075541,0.25911972274184225
1639426283307420700,7.927420654296875,-0.900776435188204,-0.3505176112398505,0.7683475942522286
1639426283317382700,7.937382568359375,-0.6619638796769082,-0.3084463559687137,1.2962041783869265
1639426283327345700,7.947345703125,-0.49498614179864525,-0.2748430693134665,1.7383055560857057
1639426283337308700,7.95730859375,-0.357093628629297,-0.30124913794100283,2.0449685357689855
1639426283347271700,7.967271728515625,-0.1827377631984651,-0.4102981262028217,2.2109376811265946
1639426283357234700,7.977234619140625,-0.1684637386523187,-0.30381460451483727,2.1314304291695354
1639426283367196000,7.98719580078125,-0.5809025301456451,0.08333440902978181,1.73701084010005
1639426283377159000,7.997158935546875,-1.1854159452423452,0.477245756316185,1.075500403279066
1639426283387122000,8.007121826171876,-1.9632944611668586,0.9863640299722551,0.27665304134488106
1639426283397084700,8.017084716796875,-2.5621628561139107,1.4481523971766233,-0.43959027166068554
1639426283407047700,8.027047607421874,-2.4150474643081425,1.6212714142888784,-0.6374784038484096
1639426283417010000,8.037010009765625,-1.3494517844498157,1.9994310656920073,-0.6810673702061176
1639426283426973000,8.046972900390625,0.42847982571199533,2.512280342569947,-1.8987018697470426
1639426283436936000,8.05693603515625,2.4470398086354135,2.421968203482032,-3.368626538270712
1639426283446898700,8.066898681640625,3.223637052577734,1.7453326782435177,-3.7366122939229007
1639426283456861700,8.07686181640625,1.7934277238488197,0.8108633784204721,-2.761378437513113
1639426283466824700,8.08682470703125,0.30532471681684253,0.07198562428057194,-2.105914295119047
1639426283476787000,8.096786865234375,-0.008936462910473347,-0.1951885178402066,-2.607455703780055
1639426283486750000,8.10675,0.08026450006514788,-0.22761808454096316,-2.8150317017674444
1639426283496713000,8.116712890625,-0.07438070272356272,0.055766018624603744,-2.03140236723125
1639426283506675700,8.12667578125,-0.024157412917912006,0.4320642600700259,-1.0229033700793981
1639426283516638700,8.136638671875,0.24422201333940027,0.6657680942654609,-0.5518512077063322
1639426283526601000,8.14660107421875,0.5227908251777291,0.9283522782474756,-0.42901802424192426
1639426283536564000,8.15656396484375,0.5846361637160181,1.1583443984434008,-0.40936698283255096
1639426283546527000,8.16652685546875,0.41486382668316363,1.3100816048309205,-0.16317922237813473
1639426283556489700,8.17648974609375,0.19087766890376806,1.4931868861675262,0.48725510915517806
1639426283566452700,8.18645263671875,0.11376900252103805,1.6031763701498507,1.2253045957773923
1639426283576414700,8.196414794921875,0.1384884332358837,1.5326476666793227,1.8500684794813393
1639426283586378000,8.2063779296875,0.211458100117743,1.2580728929132223,2.4000901336729523
1639426283596341000,8.216341064453125,0.17045447407811878,0.8075614142656325,2.7519530220419166
1639426283606304000,8.226303955078125,0.06404284858256579,0.3356085036605596,2.897197359278798
1639426283616266800,8.236266845703126,-0.028612346500158307,-0.09000935674905776,2.9041134222775695
1639426283626229800,8.246229736328125,-0.11035305659770965,-0.47044893578290936,2.9163924736142155
1639426283636191700,8.256191650390624,-0.11018003811836243,-0.8096709537655115,2.8171681292742488
1639426283646155000,8.266155029296876,-0.09060556907653808,-1.0694681373775006,2.5457792920678854
1639426283656118000,8.276117919921875,-0.012888415406644343,-1.11003278747797,2.21169171436429
1639426283666080800,8.286080810546874,0.006972469361126422,-1.132455923949182,1.878797730359435
1639426283676043800,8.296043701171875,0.07097849306464195,-1.1423293754488228,1.5500672957748174
1639426283686005800,8.306005859375,0.42060090903043745,-1.2604843379691242,1.4041361453175545
1639426283695968800,8.31596875,0.9146367643669248,-1.6085574786663055,1.4675655381768942
1639426283705931800,8.325931884765625,1.251656011608243,-2.0556579798266292,1.5748527774631975
1639426283715894800,8.335894775390624,1.2991186045289038,-2.316827913096547,1.6329016463279724
1639426283725857800,8.34585791015625,0.7660007388651371,-2.3416718469738957,1.4628724119246006
1639426283735819800,8.35581982421875,-0.05599427442252636,-2.0438120592102407,1.122327036383748
1639426283745782800,8.36578271484375,-0.684134648822248,-1.5616487202361224,0.8604086228340864
1639426283755745800,8.375745849609375,-1.2281985636532307,-0.9850070624053477,0.6539338640868664
1639426283765708800,8.385708740234374,-1.047829137021303,-0.4709770513102412,0.6847755770742893
1639426283775671800,8.395671875,-0.45513709262162444,-0.0045329672545194625,0.9422837729662656
1639426283785634800,8.405634765625,-0.1835620851933956,0.2192114907234907,1.1010451789021491
1639426283795596800,8.4155966796875,-0.00580225653797388,0.24034371060132978,0.9132248517423868
1639426283805559800,8.425559814453125,-0.000047054012119770045,0.13928133717924357,0.5970142915129661
1639426283815522800,8.435522705078125,-0.25167349838912484,-0.09839227742999791,0.08959551525115966
1639426283825485800,8.44548583984375,-0.40161680709719655,-0.26955139264613387,-0.3511690608859062
1639426283835448800,8.45544873046875,-0.3429574051186442,-0.22781828328818082,-0.3365852397382259
1639426283845410800,8.465410888671874,-0.018735095608234404,0.07120528755784035,-0.17759879287481306
1639426283855373800,8.475373779296875,0.44330695409625764,0.3216526051528752,-0.2918202153384685
1639426283865336800,8.4853369140625,0.6859063346698879,0.5683719882659614,-0.19787585722804069
1639426283875299800,8.4952998046875,0.7047881452724337,0.7487721022970975,0.17707330769598484
1639426283885262800,8.505262939453125,1.0233201341867446,0.701007165428996,0.6000216566354036
1639426283895224800,8.515224853515624,1.2157029469564555,0.7813387393809854,0.9878723887085914
1639426283905187800,8.525187744140625,1.552997796268761,0.6372056513216346,1.0308756641328334
1639426283915150800,8.53515087890625,0.9654626962408422,0.3256985926080495,0.34754736325740815
1639426283925113900,8.54511376953125,-0.9780708334013819,0.6795487092714756,-0.6726432407319546
1639426283935076600,8.55507666015625,-2.6213673247545954,1.866467094966024,-1.4389555297642946
1639426283945040000,8.565039794921875,-2.545809979467094,3.4060409076467155,-1.1904150687038897
1639426283955001900,8.575001953125,-1.1453732731893658,3.860998844309151,-1.792319470345974
1639426283964964900,8.58496484375,-0.18079729665517805,2.676609904026985,-4.018708987626433
1639426283974928000,8.594927978515624,-0.1701014228567481,1.1994459318995474,-5.72583030089736
1639426283984890600,8.604890625,-0.5244312858611345,0.0084379388038069,-6.024594051763415
1639426283994853600,8.614853515625,-0.7182768646597861,-0.5169043974876404,-4.557418389686942
1639426284004816000,8.62481591796875,-0.9435776121690869,-0.6389075598686933,-2.1608517539650203
1639426284014779000,8.63477880859375,-1.5848066007226704,-1.697730092330277,-0.15052607703208923
1639426284024742000,8.644741943359374,-1.8440896973326801,-2.1992177249774336,2.0065859058827162
1639426284034705000,8.654704833984376,-1.1078551511779426,0.7653384755641222,3.3214234730690717
1639426284044667600,8.664667724609375,0.7323989135146141,1.3487544498354196,1.1682090821146964
1639426284054630000,8.6746298828125,2.8595082646146417,-0.19347970462832598,-0.14487199679315088
1639426284064593000,8.684593017578125,2.3918702945992347,1.1155331384599207,0.46457273722589015
1639426284074556000,8.694555908203125,0.9647019410014152,1.88436471683681,0.1746048717558384
1639426284084519000,8.704518798828126,0.6737734138056636,1.22957014426738,-0.45575873165130615
1639426284094481700,8.714481689453125,1.6770517536997793,0.8286728836163878,0.02339607315659523
1639426284104444700,8.724444580078124,2.0089929670244455,1.067927118480578,0.5789654246032238
1639426284114407000,8.734406982421875,0.7083458377540112,0.3798547648832202,0.589664513272047
1639426284124370000,8.744369873046875,-0.2386418751195073,-0.1340179732909426,1.0040630605310201
1639426284134333000,8.7543330078125,-0.6520441048175096,-0.3185681562062353,1.4661603475540876
1639426284144296000,8.7642958984375,-0.6979515772506594,-0.47888161388970907,1.6745581833183765
1639426284154258700,8.7742587890625,-0.46671764030009505,-0.7648149631466716,1.2465092963695525
1639426284164221000,8.784220947265625,-0.22483751391172407,-0.8874614649325608,0.3462602460563183
1639426284174184000,8.794183837890625,-0.16817396192550657,-0.4778147883757949,-0.2561649645894766
1639426284184147000,8.80414697265625,-0.1717562043264508,0.1128066602949053,-0.5961340015470982
1639426284194110000,8.81410986328125,-0.19416005157530306,0.444172448351793,-0.7056459311455487
1639426284204072700,8.82407275390625,-0.39990415796041484,0.20684446884244678,-0.7670633996605872
1639426284214034700,8.83403466796875,-0.5624038736417889,-0.17885368830673395,-0.663518854033947
1639426284223998000,8.843998046875,-0.5754340356066823,-0.47499936562888323,-0.369642290687561
1639426284233961000,8.8539609375,-0.442362658983469,-0.7571914094656705,0.20144027171134948
1639426284243924000,8.863924072265625,-0.4658335509419441,-0.8707029300943017,1.0954583186805247
1639426284253886700,8.87388671875,-0.5103635975420475,-0.7084837849199771,1.772397210779786
1639426284263848700,8.8838486328125,-0.40854602183848615,-0.3414694315832108,1.388202078604698
1639426284273811700,8.893811767578125,-0.20601123288869858,-0.3000000146627426,0.4434416863918304
1639426284283775000,8.90377490234375,-0.12251344999074935,-0.28585049327909945,-0.11179507209956645
1639426284293738000,8.913738037109376,0.019809154580533502,-0.07545965706668793,-0.5533610277473926
1639426284303701000,8.923700927734375,0.28285978703051806,0.3320855171661824,-0.8048585850477218
1639426284313663700,8.933663818359374,0.31798604546934367,0.5341386600788682,-0.863341169154644
1639426284323625700,8.943625732421875,0.11957272036373615,0.6137209500335157,-0.7691817069888115
1639426284333588700,8.953588623046874,-0.1481096635401249,0.5372004588022827,-0.49286418120861053
1639426284343552000,8.963552001953126,-0.24399784919470546,0.26088636708818375,-0.1370727212190628
1639426284353515000,8.973514892578125,-0.16764759996384382,0.032084917981550096,0.056876317954063414
1639426284363478500,8.983478515625,0.004737257654964923,-0.1590408804643899,0.13945523244142533
1639426284373440500,8.9934404296875,0.23049685484766957,-0.2486810385748744,0.35585458835363387
1639426284383403300,9.0034033203125,0.2886570751324296,-0.2559452574241906,0.4952268186867237
1639426284393366300,9.0133662109375,0.1546919645398855,-0.10486867036987095,0.438470327720046
1639426284403329300,9.023329345703125,0.03562280978411436,0.058847398831322784,0.27918869730234147
1639426284413292300,9.033292236328125,-0.0443026675850153,0.19418409003801643,0.06678162589669227
1639426284423255600,9.043255615234376,-0.10736439617574214,0.2632457531632855,-0.14510872815847395
1639426284433217300,9.05321728515625,-0.14132131857424973,0.2590776736984029,-0.22239070528149604
1639426284443180300,9.06318017578125,-0.23928835632950066,0.20880469953212885,-0.1961187844276428
1639426284453143300,9.073143310546875,-0.2942319526553154,0.16410568957328794,-0.09198854786753653
1639426284463106300,9.083106201171875,-0.30334114178419114,0.1482534559249878,0.01570844126343727
1639426284473069300,9.0930693359375,-0.25186112991571424,0.1246618601962924,0.041406361621618266
1639426284483031600,9.103031494140625,-0.1668029658332467,0.11738693728987126,-0.025253683722019193
1639426284492994300,9.112994384765624,-0.08726970265209674,0.11369834843762218,-0.11208733304440975
1639426284502957300,9.122957275390625,-0.04801292027980089,0.11044398628417401,-0.20546938109695911
1639426284512920300,9.13292041015625,-0.0494131424665451,0.062436582429707045,-0.2257376776218414
1639426284522883300,9.14288330078125,-0.05924655421674251,0.012965937622264027,-0.1782119563370943
1639426284532845600,9.152845458984375,-0.06875409501343965,-0.04848046472631395,-0.12138415369987487
1639426284542808300,9.162808349609374,-0.0880950475603342,-0.08113795843143015,-0.06468377683460712
1639426284552771300,9.172771240234376,-0.07779021890610456,-0.09969758787490426,-0.0034428339302539825
1639426284562734300,9.182734375,-0.05122282223701477,-0.12032120064347981,0.04309212275147438
1639426284572697300,9.192697265625,0.011075813026726245,-0.14352211655415595,0.08274667226970195
1639426284582660400,9.202660400390625,0.09457534949034452,-0.13766769143752752,0.1417132405012846
1639426284592622300,9.212622314453125,0.1588119670793414,-0.10930058840271085,0.19924071584045885
1639426284602585300,9.22258544921875,0.19150778350085018,-0.07868245503809303,0.28272739282250403
1639426284612548400,9.23254833984375,0.17374094840288162,-0.04516659093797207,0.3466168044090271
1639426284622511400,9.242511474609374,0.10022358451038599,-0.031512780649401245,0.38212066398859024
1639426284632474400,9.252474365234375,0.012096388246119022,-0.021914054437913,0.39737259365618227
1639426284642436600,9.2624365234375,-0.041917526014149185,-0.0005777633553370833,0.36232115401923654
1639426284652399400,9.2723994140625,-0.07193593991994858,0.03272679608166218,0.2919049710124731
1639426284662362400,9.2823623046875,-0.0874678555727005,0.04534048620015382,0.18079437404572962
1639426284672325400,9.292325439453125,-0.07438274855017661,0.06463555377870797,0.06550736817717552
1639426284682288400,9.302288330078126,-0.06384878731518984,0.07786624328438192,-0.013608254113793372
1639426284692251400,9.31225146484375,-0.03361000865697861,0.0622425211623311,-0.03880290112495422
1639426284702213400,9.32221337890625,0.0050385786890983575,0.03375058617144823,-0.05122282223701477
1639426284712176400,9.33217626953125,0.05221417136192322,0.03821194949448108,-0.044510172855854034
1639426284722139400,9.342139404296875,0.07237871525138616,0.0436316729882732,-0.026037527576088904
1639426284732102400,9.352102294921876,0.047963820441067215,0.05632946119364351,-0.008023147457838059
1639426284742065400,9.3620654296875,-0.011153262177109718,0.10676036586798728,0.02499941670000553
1639426284752027400,9.37202734375,-0.07729016042947769,0.14566723882406948,0.012896890974044799
1639426284761990400,9.381990478515625,-0.1946051649942994,0.1386080044949427,0.04898761053085327
1639426284771953400,9.391953369140625,-0.36722032423764467,0.11350191255006939,0.1938362264484167
1639426284781916400,9.40191650390625,-0.4748445403933525,0.19371376911252736,0.3685632632791996
1639426284791879400,9.41187939453125,-0.5421484365984797,0.284659164602682,0.4270084379851818
1639426284801841400,9.42184130859375,-0.5714259690091014,0.2856221644159406,0.35678514720201493
1639426284811804400,9.431804443359376,-0.5845993388369679,0.2828993153233081,0.23883038342893123
1639426284821767400,9.441767333984375,-0.5098737681984901,0.2630117617443204,0.11722761854231357
1639426284831730400,9.45173046875,-0.42774142843484875,0.1706961738795042,-0.08669570215642451
1639426284841693400,9.461693359375,-0.45770869667530056,0.058331485198438164,-0.3522065872400999
1639426284851656400,9.471656494140625,-0.46037996171116824,-0.018179507552087307,-0.45174832696616646
1639426284861618200,9.4816181640625,-0.4272176968216896,-0.04995908591151237,-0.23886253213286399
1639426284871581400,9.49158154296875,-0.37469957407712934,-0.10358400085419416,0.007765957826375961
1639426284881544400,9.50154443359375,-0.19252748193740843,-0.13221505205482242,0.10061024574041366
1639426284891507500,9.511507568359375,0.1603673798277974,-0.10097535272575914,-0.0746446143567562
1639426284901470500,9.521470458984375,0.6749740217670798,0.08844028080143033,-0.37491760074198244
1639426284911432400,9.531432373046876,1.0763456219315528,0.20107757587879896,-0.6542296321630477
1639426284921395200,9.541395263671875,1.2098130121350288,0.20391718321889638,-0.7345107911020516
1639426284931358500,9.5513583984375,1.3864385760635136,0.1734026563592255,-0.45516894906461236
1639426284941321500,9.561321533203126,1.9137243745729327,0.19267923843301832,-0.07588146267533302
1639426284951284500,9.571284423828125,1.808928952102363,0.1730454404193908,0.15079437257945535
1639426284961246500,9.58124658203125,1.0847852412357926,0.11064612126015126,0.19074118304252624
1639426284971209200,9.591209228515625,0.32082536054849625,0.2009346602767706,-0.011890928801894187
1639426284981172200,9.601172119140625,-0.15934622008651494,0.39098420779332516,-0.28121932634711266
1639426284991135200,9.61113525390625,-0.497320576095581,0.5410837299764156,-0.5815221233487129
1639426285001098500,9.621098388671875,-0.6018591011956334,0.651616892381385,-0.8307640106767415
1639426285011061500,9.6310615234375,-0.09401888465136289,0.7101179619930684,-1.1570213331460952
1639426285021023500,9.6410234375,0.7708303509786725,0.8349271217055618,-1.3801952977597713
1639426285030986200,9.650986328125,1.3779142010852694,0.995535616812855,-1.3591127622425556
1639426285040949200,9.66094921875,1.324991881453991,0.9459268056437372,-1.2686948246926069
1639426285050912300,9.670912353515625,0.5903432893164455,0.7858233374491334,-1.0710083525568246
1639426285060875500,9.68087548828125,-0.2719061390787363,0.5143551513962448,-0.6804571293532848
1639426285070837500,9.69083740234375,-0.7693003649324178,0.29982889587953687,-0.29866145953536033
1639426285080800300,9.70080029296875,-0.9934585182778537,0.1591784623041749,0.04992343007624149
1639426285090763300,9.71076318359375,-1.0749886543646454,0.035005846929550166,0.26023382146358487
1639426285100726300,9.720726318359375,-1.137311401156336,0.007572042689472437,0.3794833012223244
1639426285110689300,9.730689208984375,-1.1690344270229338,-0.03963350673019886,0.48297523987889285
1639426285120652500,9.740652587890626,-1.0951439920343458,-0.27008462274000045,0.5577484490513801
1639426285130614300,9.7506142578125,-1.0240051938414574,-0.5966957270830869,0.6132341894298792
1639426285140577300,9.760577392578124,-1.040657199565321,-0.7805787147939205,0.6516372775822877
1639426285150540300,9.770540283203125,-1.1652069776892662,-0.781566264526546,0.8382505670398473
1639426285160503300,9.78050341796875,-1.260618778003752,-0.6179170865491033,1.1664473331391811
1639426285170466300,9.79046630859375,-1.0814533203341066,-0.5050941327065229,1.461067992851138
1639426285180428500,9.800428466796875,-0.8780921635627746,-0.585395457650721,1.550776905348897
1639426285190391300,9.810391357421874,-0.40124826604574915,-0.8530068221449851,1.304284608989954
1639426285200354300,9.820354248046876,0.28008535388112066,-0.7255100307837128,0.7998258515775203
1639426285210317300,9.8303173828125,0.6554688185691833,-0.4420639682978391,-0.29445933167040345
1639426285220280300,9.8402802734375,0.5338756982937455,-0.5353218054488301,-2.1121002902776
1639426285230243300,9.850243408203125,0.2006277862846851,-0.5952592645391821,-3.6136259657233953
1639426285240205300,9.860205322265625,-0.10453969414383173,-0.5221203785702586,-3.9141163942515846
1639426285250168300,9.870168212890626,-0.08437222764492035,-0.7269254505395889,-3.4565713637053963
1639426285260131300,9.88013134765625,-0.13584551751166582,-1.1481897919148205,-2.8168010495275255
1639426285270094300,9.89009423828125,-0.5062850960567593,-1.4772627563267946,-1.9501164151638746
1639426285280057300,9.900057373046875,-1.2166896199062467,-1.5300661257535217,-0.8250900566935538
1639426285290019600,9.91001953125,-1.7795856609791516,-1.5444365964114666,-0.07056289800107479
1639426285299982300,9.919982421875,-2.01884128408283,-1.5791253402158616,0.26890929535031316
1639426285309945300,9.9299453125,-1.9435192088559268,-1.6428303351461886,0.5204191276103258
1639426285319908400,9.939908447265625,-1.5099451287448404,-1.6065516918018459,0.67712769266963
1639426285329871400,9.949871337890626,-1.0082400539547205,-1.3459016907528043,0.3730284259945154
1639426285339834400,9.95983447265625,-0.6358104706361889,-0.8576271754220127,-0.6982838779449463
1639426285349796400,9.96979638671875,-0.4306082160428166,0.019892156688868998,-2.2534014428466556
1639426285359759400,9.97975927734375,-0.5408955139279366,0.9055345895007252,-3.427815809342265
1639426285369722400,9.989722412109375,-0.7362956286922097,1.3622718107953666,-3.8581086758255956
1639426285379685400,9.999685302734376,-0.8135980640813708,1.3618617686897516,-3.870512814846635
1639426285389648400,10.0096484375,-0.7687874469742179,1.113749762174487,-3.5133839687734842
1639426285399610400,10.0196103515625,-0.7832713148787617,0.7819114247024059,-2.9061849678546188
1639426285409573400,10.029573486328125,-0.8591992470443248,0.5112245982855558,-2.3334090455412864
1639426285419536400,10.039536376953125,-1.0456275353237985,0.29097499668598176,-1.8480770134031772
1639426285429499400,10.04949951171875,-1.2405097636938094,0.11481968061774968,-1.4974398674368858
1639426285439462400,10.05946240234375,-1.3762956599727272,-0.075176529276371,-1.3057505898892878
1639426285449425400,10.06942529296875,-1.4301020689621566,-0.26186785240620375,-1.3331202428519724
1639426285459387400,10.079387451171876,-1.5444845272064207,-0.43506431866884226,-1.6688626020252704
1639426285469350400,10.089350341796875,-1.6250442108258605,-0.3698961193181574,-2.052955442869663
1639426285479313400,10.0993134765625,-1.4355138648778198,-0.3250330413714051,-2.59854992826879
1639426285489276400,10.1092763671875,-1.010640977616608,-0.5362156855486333,-3.1865532303303477
1639426285499239400,10.119239501953125,-0.5879325749129056,-0.4931058810099959,-3.412203814190626
1639426285509201400,10.129201416015626,-0.3296276756852865,-0.1546608387492597,-3.270816152381897
1639426285519164400,10.139164306640625,-0.3533195169180631,0.2408973989613354,-2.802057653903961
1639426285529127400,10.14912744140625,-0.7129998010396957,0.6074322251528501,-2.2395149563133714
1639426285539090400,10.15909033203125,-1.448986509913206,0.7167785889260471,-1.5123475137114524
1639426285549053400,10.169053466796875,-2.348195111262798,0.5885024837553501,-0.7510907545030117
1639426285559015400,10.179015380859376,-3.1398873407453296,0.22302330409660934,-0.14808452909886835
1639426285568978400,10.188978515625,-3.6172640299648045,-0.2583436238028109,0.4591548038303852
1639426285578941400,10.19894140625,-3.7378257613658903,-0.8216793714672327,1.0367805042624474
1639426285588904400,10.208904541015626,-3.575841301730275,-1.3569244584180413,1.5281296047329902
1639426285598867500,10.218867431640625,-3.262891204601526,-1.7225032990589737,1.8956489119172095
1639426285608830500,10.22883056640625,-2.891114824494719,-1.9032336679577826,2.0527420923799276
1639426285618792200,10.238792236328125,-2.5898604258567093,-1.8952201651111245,1.8715233554422854
1639426285628755500,10.24875537109375,-2.4688024353712796,-1.7360808657735585,1.4583289232760668
1639426285638718500,10.258718505859376,-2.427760815408826,-1.5046856007814406,0.8157944050818682
1639426285648681500,10.268681396484375,-2.344679796618223,-1.220434797783941,0.04030629142522812
1639426285658644500,10.27864453125,-2.2169722851157188,-0.9620158437225967,-0.5945306580036879
1639426285668606200,10.288606201171875,-2.1422201187312604,-0.8020880243558436,-0.8396452362686395
1639426285678569200,10.2985693359375,-2.1720447636306286,-0.6713221481960266,-0.801643130132556
1639426285688532500,10.308532470703126,-2.345962822166085,-0.5353765678433701,-0.7249322308957576
1639426285698495500,10.31849560546875,-2.506239308840036,-0.39654845432434227,-0.7488076120018958
1639426285708458500,10.32845849609375,-2.606671859925985,-0.39295247565899044,-0.8356190494924783
1639426285718421500,10.33842138671875,-2.660143922394514,-0.4804555121429264,-0.875355432075262
1639426285728383200,10.34838330078125,-2.4932804585456845,-0.6167112178906798,-0.7200812837332486
1639426285738346200,10.35834619140625,-2.336356204909086,-0.781197869605571,-0.17125731489360332
1639426285748309200,10.368309326171875,-2.244634199023247,-0.8966533639088272,0.7021276938915252
1639426285758272500,10.3782724609375,-1.925449006897211,-0.9659029873542487,1.5940309406638145
1639426285768235500,10.388235595703126,-1.5571721593439578,-0.925357334215194,2.4051593997612595
1639426285778197200,10.398197265625,-1.052771854120493,-0.7273992055311799,3.1092604395523664
1639426285788160300,10.40816015625,-0.4043196363151073,-0.3378684114165604,3.4755630644232034
1639426285798123300,10.418123291015625,0.2873901239365339,0.2759980845674872,3.5074046021029353
1639426285808086300,10.428086181640625,0.8303098371684551,1.092499030483514,3.1079569557383655
1639426285818049500,10.438049560546874,1.0012754756391047,2.162110814115405,1.9285244688197969
1639426285828012500,10.448012451171875,1.0232686962604522,3.0326945017442104,0.6210799344941973
1639426285837974300,10.457974365234374,0.900301657283306,3.351533072389662,0.2422548049196601
1639426285847937300,10.467937255859376,0.6063970368862152,3.0265590677291154,0.9517571192324161
1639426285857900300,10.477900390625,0.3271884658396244,2.4603467417150733,2.201374903011322
1639426285867863300,10.48786328125,0.030059622699022293,1.9574470503129064,3.389538685657084
1639426285877826600,10.49782666015625,-0.2057084505498409,1.5657358434192836,4.3022851062327625
1639426285887788300,10.507788330078125,-0.32332594519257546,1.4482092419303954,4.775880523347855
1639426285897751300,10.517751220703126,-0.5272106874465942,1.5194358645372092,4.97729156896472
1639426285907714300,10.52771435546875,-0.5913479363143443,1.6973041220031677,5.159226345217228
1639426285917677300,10.53767724609375,-0.47000002297163007,1.921390671417117,5.240390716731548
1639426285927640300,10.547640380859375,-0.2732873643040657,2.089275733398646,4.929833067697286
1639426285937603600,10.557603515625,0.2362836215555668,2.116248349867761,4.086634815122187
1639426285947565300,10.5675654296875,0.9033727352917194,1.9580086297184227,2.710396146033704
1639426285957528300,10.5775283203125,0.9365221406996249,1.5960894806288182,0.8962018938142806
1639426285967491300,10.5874912109375,-0.06426350559592246,1.1636064836900681,-0.7824869595680385
1639426285977454300,10.597454345703126,-0.840804343175888,0.7944812026139348,-1.558701268607378
1639426285987417300,10.607417236328125,-0.9264017287015914,0.5560053682437166,-1.6459391148164868
1639426285997380600,10.617380615234374,-0.557293691021204,0.46365317469555883,-1.3889606418870388
1639426286007342300,10.62734228515625,-0.17565701115727422,0.33710732738357035,-1.31994833432883
1639426286017305300,10.637305419921875,-0.2064186446458101,0.037197109896130856,-1.6442248582445085
1639426286027268400,10.647268310546876,-0.67475920997262,-0.24636684334836897,-2.2108567248448727
1639426286037231400,10.6572314453125,-1.1089531755477189,-0.47354350426476444,-2.705912863139808
1639426286047194400,10.6671943359375,-1.0506161373913288,-0.6695527273707091,-2.8718969138056036
1639426286057156400,10.67715625,-0.6595628098845482,-0.8452251552928238,-2.7995965244874355
1639426286067119400,10.687119384765625,-0.47651159682273864,-0.9929428238406777,-2.346473986558616
1639426286077082400,10.697082275390626,-0.6200666657984256,-1.03641890440844,-1.7160500312663614
1639426286087045400,10.70704541015625,-0.8753788129508495,-0.8901537727564572,-1.1185935489438474
1639426286097007600,10.717007568359374,-1.058258176577091,-0.6716150667279959,-0.5439970601398497
1639426286106970400,10.726970458984376,-1.1479805330783128,-0.5809299296092242,-0.008155359002761542
1639426286116933400,10.736933349609375,-1.2166530872881411,-0.5607082121724263,0.26406664109211414
1639426286126896400,10.746896484375,-1.2407149308770895,-0.5242382840396836,0.3576958323061466
1639426286136859400,10.756859375,-1.2568635171234608,-0.5361361175063997,0.3488501894842833
1639426286146821400,10.7668212890625,-1.224816519999504,-0.5714186990180984,0.24765242617949842
1639426286156784400,10.776784423828126,-1.151223460522294,-0.7285465489353984,0.11787512266561388
1639426286166747400,10.786747314453125,-1.0873942546904087,-0.9351002181377261,-0.11801920731142163
1639426286176710400,10.79671044921875,-0.8628969325184822,-1.0799754298012703,-0.41367447076812386
1639426286186673400,10.80667333984375,-0.5181038364052772,-1.1444224022053182,-0.7389426360696554
1639426286196636400,10.816636474609375,-0.4017845648795366,-1.236129648913443,-0.9425577676020562
1639426286206598400,10.826598388671876,-0.38198973108530043,-1.1602417564973235,-0.9564892623208463
1639426286216561400,10.8365615234375,-0.3411667223095894,-0.8761753701560199,-0.8310043953038752
1639426286226524400,10.8465244140625,-0.2850163805425167,-0.5866702268268913,-0.5656576147407293
1639426286236487400,10.8564873046875,-0.34330256529450415,-0.3815881645470857,-0.224380710054934
1639426286246450400,10.866450439453125,-0.6198696819216013,-0.2705287863109261,0.012651245649904013
1639426286256412400,10.876412353515626,-0.8306570431709289,-0.27804719911701975,0.1274810092702508
1639426286266375400,10.88637548828125,-0.8968950637102127,-0.40404271906986833,0.11289163516461849
1639426286276338400,10.89633837890625,-0.9433037636637687,-0.5854967260681092,0.03307984730303287
1639426286286301400,10.906301513671876,-0.9796072491884231,-0.7657578700199723,-0.17706483212858437
1639426286296264400,10.916264404296875,-0.9821166016608476,-0.8713612478725612,-0.518645103675127
1639426286306227500,10.9262275390625,-1.0664379759013651,-0.8040762024983763,-0.8222238536074757
1639426286316189200,10.936189208984375,-1.2416969276517629,-0.5866727110449225,-0.9873287833511829
1639426286326152400,10.94615234375,-1.531650764596462,-0.4011925538031384,-1.03382866871953
1639426286336115500,10.956115478515626,-1.7740227661550043,-0.21704430275224149,-0.9960431279435753
1639426286346078500,10.966078369140625,-1.6967852126955985,-0.07736278727427125,-0.9482508646771312
1639426286356041500,10.97604150390625,-1.5763935771644115,0.00277859786786139,-0.9581588029682636
1639426286366003200,10.986003173828125,-1.5095686966478823,0.06264788709282874,-1.0542308207571507
1639426286375966200,10.99596630859375,-1.4033154765844345,0.10395838712453842,-1.1921399928003549
1639426286385929500,11.005929443359374,-1.1619488526761532,0.1417890091512352,-1.4186153370469807
1639426286395892500,11.015892578125,-0.7189794599711895,0.22907025611065326,-1.6716060555145142
1639426286405855200,11.025855224609375,-0.3408288686573505,0.3922597806870937,-2.0487591602236033
1639426286415818200,11.035818359375,-0.3342775473177433,0.5870310960285365,-2.6042659678280353
1639426286425780200,11.0457802734375,-0.7224187867701053,0.6795313928104937,-3.041014878582954
1639426286435743200,11.0557431640625,-1.1310919421195984,0.7839310939617454,-3.2142087144970892
1639426286445706200,11.065706298828125,-1.1255284627735613,0.8343006603702903,-2.984677489811182
1639426286455669200,11.075669189453125,-0.6322492710232734,0.8407416532032191,-2.375510403689742
1639426286465632300,11.08563232421875,-0.4858236150473356,0.7488418065324425,-1.6417565684348343
1639426286475594200,11.09559423828125,-0.7536269949823617,0.6012656653471291,-1.0798480770945549
1639426286485557200,11.10555712890625,-1.1679565686583517,0.4172922228738665,-0.8706395094692706
1639426286495520300,11.115520263671876,-1.5349059670001268,0.1322754039399326,-0.9159925628900527
1639426286505483300,11.125483154296875,-1.8905916285276412,-0.04002075248211622,-0.7848433865010738
1639426286515446300,11.1354462890625,-1.9211264675229787,-0.1498677592538297,-0.8189625137239694
1639426286525409300,11.1454091796875,-1.747456246268749,-0.17311580224186182,-1.194654021447897
1639426286535371300,11.155371337890625,-1.4525111769080161,-0.040220074446499346,-1.4303893614709375
1639426286545335300,11.165335205078126,-1.1738882967948914,0.2951812162041664,-1.7387632367253303
1639426286555298300,11.17529833984375,-1.0838882923960684,0.6955392554119229,-1.9982173059880732
1639426286565261300,11.18526123046875,-1.1382143413454293,1.073419943743199,-2.126580651050806
1639426286575224000,11.19522412109375,-1.7498761668920515,1.3890981506615876,-1.941911481398344
1639426286585187000,11.20518701171875,-2.2518583050578833,1.5581348668962716,-1.7173370023369787
1639426286595149300,11.2151494140625,-2.1998644984483717,1.6066887621849775,-1.7781155884265898
1639426286605112300,11.2251123046875,-3.0961960830569266,1.3895137457251547,-1.1542390089511871
1639426286615075300,11.235075439453125,-3.6465912467360493,1.1542336751889437,0.3816372643858194
1639426286625038300,11.245038330078126,-4.112981262516975,1.1099193171661346,2.456561962479353
1639426286635001000,11.2550009765625,-5.141977104252576,0.6625421179562807,4.7295028030544515
1639426286644964000,11.264964111328124,-6.713859341472387,-0.33118692435864355,7.023562419503927
1639426286654926300,11.27492626953125,-8.309732695132494,-1.8464523348107933,10.08336032449007
1639426286664889300,11.284889404296875,-9.760664493894577,-3.4171520842477676,14.266815053158998
1639426286674852400,11.294852294921874,-9.990829340308904,-4.076598282015324,18.699533296465873
1639426286684815000,11.304815185546875,-6.581040770566463,-2.1772547533638775,18.765109638226033
1639426286694778000,11.314778076171875,-2.038013894325495,1.1429508683480323,11.927760695207118
1639426286704741000,11.3247412109375,0.5176280355870724,1.887894936789572,5.156676660734415
1639426286714703400,11.334703369140625,2.521620417845249,1.1581292213227599,1.7720862451344728
1639426286724666400,11.344666259765624,0.9107587538897991,0.6135501235112547,-0.13938333624899388
1639426286734629000,11.354629150390625,-0.8248726145505905,0.3570052196934819,-1.53616794975996
1639426286744592100,11.364592041015625,-1.6237924571990965,0.16962386847287417,-2.6159143200457096
1639426286754555100,11.37455517578125,-1.831495296436548,0.06605060820840299,-3.1725825726449486
1639426286764517400,11.384517333984375,-1.7870435757696628,0.03558445053510367,-3.073781422153115
1639426286774480400,11.39448046875,-1.6298200469255446,0.12721132548339664,-2.453574471101165
1639426286784443400,11.404443359375,-1.4665562150038778,0.33664880649372936,-1.5205875187903641
1639426286794406100,11.41440625,-1.163700080257654,0.5124482948616147,-0.5288263059496879
1639426286804369200,11.424369140625,-0.23632563406638799,0.5251886070344597,0.4182575607746839
1639426286814332200,11.434332275390625,0.5666881268322468,0.4189879208758473,1.0550888988912106
1639426286824294400,11.44429443359375,0.609232990964502,0.3530221414066851,1.0046709632962942
1639426286834257400,11.45425732421875,0.5083762231171131,0.27413813591450453,0.5780763668090104
1639426286844220200,11.46422021484375,0.3656697337947786,0.24186215234026312,0.31557401589155193
1639426286854183200,11.47418310546875,0.21101685915626583,0.21167978004440663,0.256373054382205
1639426286864146200,11.484146240234375,0.006878434402123094,0.15837430631443858,0.23748715212643146
1639426286874109200,11.494109130859375,-0.18597857175059615,0.09810023568086325,0.2230026996999979
1639426286884071400,11.504071533203126,-0.25373510709404945,0.002476326985657215,0.21614216628074645
1639426286894034400,11.514034423828125,-0.16946575530171393,-0.08245762619525193,0.15178396813869474
1639426286903997200,11.5239970703125,-0.013577274453639984,-0.1642997508406639,0.03129179484248161
1639426286913960200,11.533960205078126,0.1383047472320497,-0.2185580683160573,-0.13425123405754566
1639426286923923200,11.543923095703125,0.2740751536808908,-0.25390059985406693,-0.2773217343866825
1639426286933885400,11.553885498046874,0.3640342415474355,-0.29845373506881295,-0.456439699652791
1639426286943848400,11.563848388671875,0.4144074612177908,-0.34025888674966986,-0.6775415341675282
1639426286953811200,11.573811279296875,0.5751356371819972,-0.32955110331773757,-0.8186112160682678
1639426286963774200,11.583774169921876,0.6746748926900327,-0.283841272348538,-0.9313771790266037
1639426286973737200,11.5937373046875,0.7825577597819269,-0.20193075864203272,-0.990855203911662
1639426286983700200,11.6037001953125,0.79604048781991,-0.12148352242112159,-0.9377180724859238
1639426286993662500,11.613662353515625,0.7339071261204779,-0.007609525155648588,-0.8467746497571468
1639426287003625200,11.623625244140625,0.6223743582189083,0.0723614718556404,-0.7579442736595868
1639426287013588200,11.633588134765626,0.4572409330330789,0.0864565596383065,-0.6430442212820052
1639426287023551200,11.64355126953125,0.294641117978096,0.0752332278996706,-0.5417728812843561
1639426287033514200,11.65351416015625,0.1082451245330274,0.06424297426454723,-0.48805824223160743
1639426287043477200,11.663477294921876,-0.029644466026872394,0.05090666895993053,-0.43512978512048717
1639426287053439500,11.673439453125,-0.027317045992612837,0.01462006150484085,-0.3301648513019085
1639426287063402200,11.68340234375,0.017742577439546586,-0.038386721539497376,-0.2567775435298681
1639426287073365200,11.693365234375,0.02659457693696022,-0.07764642652124167,-0.18945055871009825
1639426287083328300,11.703328369140625,0.030252295726910232,-0.10952727329805492,-0.10641863975822925
1639426287093291300,11.713291259765626,0.002017915693670511,-0.12162051973901689,-0.0234235456854105
1639426287103254300,11.723254150390625,-0.04587568905539811,-0.084766852985695,0.034680268236994743
1639426287113216300,11.73321630859375,-0.0825884129680693,-0.03897102423347532,0.10216039779186248
1639426287123179300,11.74317919921875,-0.12274163272343576,-0.0030390754349529743,0.1551280178695917
1639426287133142300,11.753142333984375,-0.15942951445579528,0.026705343835055826,0.17993921852111816
1639426287143105300,11.763105224609374,-0.1663479886073619,0.04007942386679351,0.19922727183699607
1639426287153068300,11.773068359375,-0.18544541472196577,0.042698739519715305,0.2032078659057617
1639426287163030300,11.7830302734375,-0.21655600777864456,0.030790275061130523,0.21136194626688956
1639426287172993300,11.7929931640625,-0.2246142265498638,0.027654315122961997,0.21257775179743765
1639426287182956300,11.802956298828125,-0.250715613142401,0.02547163732163608,0.2266483627259731
1639426287192919300,11.812919189453124,-0.26553660404682156,0.022454116131365297,0.24580548313856124
1639426287202882300,11.82288232421875,-0.28529344391822814,0.013932371501624583,0.2511012514591217
1639426287212845300,11.83284521484375,-0.2877015279732644,0.004153101091459393,0.2624550046443939
1639426287222807300,11.842807373046876,-0.30416181051731106,-0.02332330018132925,0.2777542805850506
1639426287232770300,11.852770263671875,-0.2922679591059685,-0.036839492097496984,0.2701929054200649
1639426287242733300,11.8627333984375,-0.2766704308710992,-0.044480289174243806,0.267643220937252
1639426287252696300,11.8726962890625,-0.2742716991662979,-0.026962825727462766,0.26654081265330315
1639426287262659300,11.882659423828125,-0.2638579302448779,-0.01182728898115456,0.24993805289864537
1639426287272622300,11.892622314453124,-0.261961522039026,-0.003267112037166953,0.2305617367774248
1639426287282584000,11.902583984375,-0.26015184226855637,0.0108952688280493,0.21703882285952567
1639426287292547300,11.91254736328125,-0.2571967187900096,0.025544702557846903,0.19579320573508738
1639426287302510300,11.92251025390625,-0.26361586511731144,0.058572308216989034,0.18712708419859408
1639426287312473300,11.932473388671875,-0.25767361558675766,0.09174392545670271,0.1992389622747898
1639426287322436400,11.942436279296874,-0.26953341859802604,0.08988989508785307,0.23978607671856877
1639426287332398000,11.952398193359375,-0.2542811966694891,0.06501271652802824,0.2710486454665661
1639426287342361000,11.962361083984375,-0.2359272093333304,0.015807736919447778,0.2878349450945854
1639426287352324400,11.972324462890626,-0.23019882174916564,-0.040847339499369265,0.26888532995283604
1639426287362286600,11.98228662109375,-0.2409120850738138,-0.0964053413964808,0.19115911619365214
1639426287372249600,11.99224951171875,-0.241293047215417,-0.12273330328650772,0.044236032089591024
1639426287382212600,12.002212646484375,-0.20631299231424927,-0.09040865826494991,-0.09825228443741797
1639426287392174800,12.0121748046875,-0.13494520767107604,-0.029266207299008962,-0.20781974361538885
1639426287402137900,12.022137939453126,-0.03175122904777527,0.005874737252295017,-0.2971814501106739
1639426287412100900,12.032100830078125,0.09950652228221296,0.02160122562907636,-0.3530862926840782
1639426287422063600,12.042063720703124,0.23883082182034848,0.0433737892370671,-0.3444844685554504
1639426287432026600,12.052026611328126,0.3474373270116746,0.028821824532374737,-0.3480500520825386
1639426287441989600,12.06198974609375,0.3823427823066711,-0.005667816503345966,-0.3478419622898102
1639426287451951600,12.07195166015625,0.3177520905829966,-0.04732223460189998,-0.31195348730683325
1639426287461915000,12.081914794921875,0.18073183020353317,-0.08713672392219304,-0.23485388101339338
1639426287471877600,12.091877685546875,0.055021045476198197,-0.10071662872433662,-0.17688859877884386
1639426287481840600,12.101840576171876,-0.02176547628007829,-0.08511939275041222,-0.14575871649980543
1639426287491803600,12.1118037109375,-0.053454599877074356,-0.05928374442197382,-0.1488584360808134
1639426287501766700,12.1217666015625,-0.047082142235711215,-0.04005648138262331,-0.1781716243267059
1639426287511728600,12.131728759765625,-0.02746807183586061,-0.01435629600211978,-0.17895020748376844
1639426287521692000,12.14169189453125,-0.009455445283278822,-0.008305106204375624,-0.13717793515920637
1639426287531654700,12.151654541015626,-0.009194675455242395,0.000851867588981986,-0.06449614530801773
1639426287541617700,12.16161767578125,-0.041855493628606195,-0.017029022342711687,0.006223404559493065
1639426287551580700,12.17158056640625,-0.09369907811246812,-0.029373613196238872,0.0516571220010519
1639426287561543700,12.181543701171876,-0.14912205545306204,-0.033013211807608606,0.08649521114826202
1639426287571505700,12.191505615234375,-0.200833611055091,-0.027138547620549798,0.0869797797948122
1639426287581468700,12.20146875,-0.20514964762330054,-0.003973287545144558,0.08769114293456078
1639426287591431700,12.211431640625,-0.17761764370575547,0.017338599748536944,0.10374679020047187
1639426287601394700,12.221394775390625,-0.16216975307464598,0.031132220366597175,0.13322247553169728
1639426287611357700,12.231357666015626,-0.12630334379300476,0.03017747692503035,0.15113047266602514
1639426287621319700,12.241319580078125,-0.12509352961182593,0.024797172126173973,0.17152677948474884
1639426287631282700,12.25128271484375,-0.14399813656806945,0.008319792316853999,0.17400398325324057
1639426287641245700,12.26124560546875,-0.17322876109704374,0.009551745264604687,0.1471902106076479
1639426287651208700,12.271208740234375,-0.19228439389653504,0.01566774392686784,0.1060071363478899
1639426287661171700,12.281171630859374,-0.22019626397714018,0.01487849324531853,0.07862403938174248
1639426287671134700,12.291134765625,-0.21248313231654464,0.025678265809640288,0.055898412832617754
1639426287681096700,12.3010966796875,-0.17940730360150337,0.03194967422932386,0.051752399069070816
1639426287691059700,12.311059814453126,-0.1427333042640239,0.027245076734945178,0.04677110352516174
1639426287701022700,12.321022705078125,-0.12415946363210677,0.01711538545191288,0.06299041692018509
1639426287710985700,12.33098583984375,-0.11465521077103911,0.00831007464043796,0.06926525940597057
1639426287720948700,12.34094873046875,-0.12425766330957412,-0.013901976363360881,0.09987024102807045
1639426287730911700,12.350911865234375,-0.159528883177042,-0.04005991544872522,0.11152911463975906
1639426287740873500,12.36087353515625,-0.19503281582184134,-0.05667677679397166,0.13720949934124946
1639426287750836700,12.370836669921875,-0.21450323996730147,-0.05884330717809498,0.1373608905106783
1639426287760799700,12.3807998046875,-0.20181896883063016,-0.034081644756719466,0.12257774739861488
1639426287770762800,12.3907626953125,-0.1700982079863548,-0.011242401765286921,0.10576105263233185
1639426287780725800,12.400725830078125,-0.12731821992397307,0.0003752630531787872,0.09452186573743819
1639426287790688800,12.410688720703124,-0.10431845260858535,0.008598316997289657,0.07568973949551581
